time,seconds_elapsed,z,y,x
1761585608155583000,0.0855830078125,-0.08989595950245857,-0.12983400213718413,0.045735769128054375
1761585608165557000,0.095556884765625,-0.0905436097562313,-0.013661445605754852,0.029616335910931227
1761585608175529700,0.10552978515625,-0.1683084019601345,0.005413257220387459,-0.022911942901462316
1761585608185503700,0.115503662109375,-0.14072949016094208,0.015353636476397514,-0.07015007941648364
1761585608195477800,0.125477783203125,0.012698738053441046,0.06985095033943653,-0.08814670468233525
1761585608205450800,0.13545068359375,0.05025134685635566,0.12248656198382377,-0.060467328183352945
1761585608215424800,0.1454248046875,-0.013265139764547348,0.08433014206886291,-0.07195146628264337
1761585608225398800,0.155398681640625,0.07284604050219058,0.03885901522636413,-0.11064155468288808
1761585608235372800,0.165372802734375,0.15721651458144187,0.06430734473764896,-0.04040332205891609
1761585608245345800,0.175345703125,0.1334258891493082,0.027707506614923477,-0.015959529947675764
1761585608255319800,0.18531982421875,0.17633973272442816,0.017164485290646552,0.025057393964938817
1761585608265293800,0.1952939453125,0.27225334508121013,0.07114917345643043,0.027462409280054268
1761585608275267800,0.205267822265625,0.3102437607795,0.06809563110470772,0.01893657299708575
1761585608285240800,0.21524072265625,0.2549433138400316,0.044155368068814274,0.07965246911402792
1761585608295214800,0.22521484375,0.20502689802646637,0.040219197663664816,0.10356299459878354
1761585608305188900,0.23518896484375,0.1645996105700731,0.04774316342771053,0.07713339896518737
1761585608315161900,0.245161865234375,0.09038345075845718,0.022333996883034706,0.055254854232072825
1761585608325136000,0.255135986328125,0.10144552752077579,0.003201426389813423,0.006031060325168073
1761585608335109600,0.265109619140625,0.07612170117199421,0.01976151604652405,-0.02993588672149926
1761585608345083000,0.275082763671875,0.006432078874111175,-0.011259645161032675,-0.0462104739677161
1761585608355056600,0.285056640625,-0.05574994427263737,-0.05832417867481708,0.0034568624556064603
1761585608365030700,0.29503076171875,-0.0831453161984682,-0.06654840166270733,0.04086564234104007
1761585608375004700,0.305004638671875,-0.03995557829141617,-0.04368015177249908,0.0045321635369211435
1761585608384978000,0.31497802734375,0.006035773032903671,0.0035498014360666272,-0.02904551375303417
1761585608394952000,0.324951904296875,-0.0438186834603548,0.07100830368101596,-0.02206380163952708
1761585608404925700,0.33492578125,-0.11366788023412228,0.11891747132539748,0.018833258753083646
1761585608414899700,0.344899658203125,-0.019134908580780027,0.15696926182210444,0.01599840065333992
1761585608424873000,0.354873046875,0.016010639080405235,0.13526245692670344,-0.018898615606874225
1761585608434847000,0.364846923828125,-0.034621231526136394,0.09211597363948822,0.0073612860156223175
1761585608444821000,0.374821044921875,-0.018902268868684766,0.025496260306239128,0.03327818288672715
1761585608454794000,0.3847939453125,-0.07519640302062035,0.03547463348507881,0.026048889220319688
1761585608464768000,0.39476806640625,-0.11183540410995482,0.022813304832577704,0.0247291849238798
1761585608474742000,0.404741943359375,-0.1410556533753872,0.004992985981702804,0.05692760974988341
1761585608484716000,0.414716064453125,-0.18270166897177695,-0.012156886261701583,0.07091291701514274
1761585608494688800,0.424688720703125,-0.21157529675662518,0.002509352472424507,0.07581826124601065
1761585608504662800,0.434662841796875,-0.19277824182808398,0.026256723284721374,0.06394410091582685
1761585608514636500,0.444636474609375,-0.09276654650270938,0.07037292838692664,0.08975519932489842
1761585608524609500,0.454609619140625,-0.06484042870104313,0.053875967094302174,0.12311565366759895
1761585608534583600,0.46458349609375,-0.14930208819508553,-0.019262334352731704,0.11604377905260771
1761585608544557600,0.4745576171875,-0.12135726569294929,-0.02265022322535515,0.07704886248689144
1761585608554531600,0.484531494140625,-0.024765607944130897,0.04253390434682369,0.009148242497630417
1761585608564504300,0.49450439453125,-0.029880759000778197,0.09030512482523918,-0.05035440537203103
1761585608574478300,0.504478271484375,0.08924246402978897,0.04781564414203167,-0.1517371333222836
1761585608584452400,0.514452392578125,0.16749474748969076,0.006193009421229362,-0.1619876014407724
1761585608594425300,0.52442529296875,0.05838613799512386,0.0005623100578784942,-0.11765589042436331
1761585608604399400,0.5343994140625,0.05877250696420669,0.0082914430052042,-0.10071472902819514
1761585608614373400,0.544373291015625,0.20305238308310508,0.015635960549116135,-0.03182929925266653
1761585608624347400,0.554347412109375,0.1641086121827364,0.024572131198644636,0.04709723020698875
1761585608634320400,0.5643203125,0.1715577591449022,0.02725684023797512,0.12454681898187846
1761585608644294400,0.57429443359375,0.22600655769109726,0.05716565628945827,0.14468294049445538
1761585608654268400,0.584268310546875,0.16477321357131003,0.028949615630507467,0.08383271394073963
1761585608664241700,0.59424169921875,0.20113748937249182,0.00943652138710022,0.05499971042722463
1761585608674215700,0.604215576171875,0.07049275537431239,-0.007856558719277382,0.0441508014915511
1761585608684189400,0.614189453125,0.11326397560834885,-0.04058101671338081,0.04508972630947828
1761585608694163500,0.62416357421875,0.19032617250084877,0.0011053308933973312,0.13975973181333393
1761585608704136700,0.63413671875,-0.030067806005477902,-0.007643792751431465,0.10770688947048038
1761585608714110700,0.64411083984375,0.009457564175128936,0.002210077264904976,-0.02247654715888202
1761585608724084500,0.65408447265625,0.16952303844690322,0.0564671526312828,-0.13261954120248556
1761585608734057500,0.664057373046875,0.19856851566731928,0.03261924405395984,-0.1308861780712381
1761585608744031500,0.674031494140625,0.04913841717839241,0.005201075774431229,-0.03642415276225656
1761585608754005500,0.684005615234375,-0.0796422765135765,0.0440583374351263,0.006587123305350542
1761585608763979500,0.6939794921875,-0.040977322554588316,0.11913257538080214,0.023574936854839322
1761585608773952500,0.703952392578125,-0.015026304218173026,0.12937222984433172,0.029964674424566327
1761585608783926500,0.713926513671875,-0.07210077509284019,0.03058686144351959,0.03323116540722549
1761585608793900500,0.723900634765625,-0.07740706480741501,-0.021571195816993714,0.04422459738012403
1761585608803873500,0.73387353515625,-0.05543839410543441,-0.02509995446503162,0.03348225409146398
1761585608813847600,0.74384765625,-0.06231120248436928,-0.017654899156093598,-0.025854499159380793
1761585608823821600,0.753821533203125,-0.06340542746186256,0.03253331933617592,-0.07320902859568595
1761585608833795600,0.763795654296875,-0.09929857861995696,0.046400516647100445,-0.09515117661692202
1761585608843768600,0.7737685546875,-0.130192314055562,0.009669161099195479,-0.04748385490439832
1761585608853742600,0.78374267578125,-0.10910802497267723,-0.026546061620116232,0.03351743500269949
1761585608863716600,0.793716552734375,-0.052554363101720805,0.018029577687382697,0.1052483173372224
1761585608873689300,0.803689453125,-0.053910453885793685,0.058308396583795545,0.14650222834348678
1761585608883663400,0.813663330078125,-0.015810148072242736,0.005704933643341064,0.1204985665043816
1761585608893637400,0.823637451171875,0.05226327120065689,0.004222586131095886,0.057836431690491734
1761585608903611400,0.833611328125,0.05724924291968345,0.005285831448435783,0.018951259109564123
1761585608913584400,0.84358447265625,0.07054536234438419,-0.009139584267139435,-0.028497853275015948
1761585608923558400,0.853558349609375,0.11870587440133094,0.027381927922368047,-0.055538712674751876
1761585608933532400,0.863532470703125,0.11516308722794055,0.05133154330849647,-0.033899420057609674
1761585608943505400,0.87350537109375,0.09082008861005306,0.05041442846357822,0.0018791648101061582
1761585608953479400,0.8834794921875,0.08573591721355915,0.05761398457884788,0.000998436452820897
1761585608963453400,0.893453369140625,0.12939035002291202,0.05805003790855407,-0.03243216051664203
1761585608973427500,0.903427490234375,0.12125672792792319,0.15001637394428252,-0.0281835996940732
1761585608983400700,0.913400634765625,0.08830781352818012,0.17527999453842638,-0.019370069043524563
1761585608993374500,0.92337451171875,0.02289279980957508,0.1095750579625368,-0.04029058239944279
1761585609003348500,0.933348388671875,-0.054358197653293604,0.026564766320586203,0.004234532297216356
1761585609013321500,0.943321533203125,-0.027892215532064436,-0.024386253237724302,0.0627158377625048
1761585609023295500,0.95329541015625,-0.06833996125459671,-0.04371113143265247,0.12374014224149286
1761585609033269500,0.96326953125,-0.1275257251948118,-0.07372633046805858,0.09771426857057958
1761585609043243500,0.973243408203125,-0.0389911171734333,-0.013971242207288742,0.025448548706993458
1761585609053216500,0.983216552734375,0.055203416305780406,0.036187165668606754,0.016698073355294763
1761585609063190500,0.9931904296875,0.005112228447198867,-0.021070845079421995,0.007306377490609884
1761585609073164500,1.00316455078125,0.00025017536878585813,-0.01438040753006935,0.000995404245518148
1761585609083137500,1.013137451171875,0.08267302251160144,0.05424363136291504,-0.01725135985650122
1761585609093111600,1.023111572265625,0.058927989786863325,0.05981120236217975,-0.06606653642989695
1761585609103085600,1.03308544921875,0.05308744706511497,0.04580430431962013,-0.07131400862932205
1761585609113059600,1.0430595703125,0.06754384244084358,0.06403261944949626,-0.0475181225001812
1761585609123032600,1.053032470703125,0.03348141384124756,0.061487611141800874,-0.013812982905656098
1761585609133006600,1.063006591796875,-0.09167992030978202,-0.02348842761516571,0.03387918098717928
1761585609142980600,1.072980712890625,0.011464812344312666,-0.054366965481638906,0.034828992525301875
1761585609152953300,1.082953369140625,0.05483867464661598,0.025590952852368353,0.006227861538901924
1761585609162927400,1.09292724609375,0.0038262802898883816,-0.0033580782562494275,-0.0247386468719691
1761585609172901400,1.1029013671875,0.007816226708889007,0.007473696881532668,-0.004392718533612787
1761585609182875400,1.11287548828125,0.057258010748028755,0.04093348341286182,-0.006107705757953226
1761585609192848400,1.122848388671875,0.06418342609703541,0.08478899175226688,-0.003508592642843723
1761585609202822400,1.132822509765625,0.006646013885736465,0.07661328408122062,0.025906448542326686
1761585609212796400,1.14279638671875,-0.006449030008912086,0.019142507365345954,0.0803848750418052
1761585609222769400,1.152769287109375,-0.030858664122223853,-0.015172434690594672,0.08586337951812893
1761585609232743400,1.162743408203125,-0.02762450450658798,-0.00905132146179676,0.036727081231586634
1761585609242717400,1.172717529296875,0.09058277272284031,0.05299567712843418,-0.03166340463384986
1761585609252691500,1.18269140625,0.1175964518547058,0.06429097812473773,-0.08809084630925208
1761585609262664400,1.19266455078125,0.09821955121159553,0.03949731312990189,-0.053338206955790515
1761585609272638500,1.202638427734375,0.047369653940200804,0.0004155950635671615,-0.02297949171233922
1761585609282612500,1.212612548828125,0.060868602460622784,0.020670447584986686,0.0037013387359678745
1761585609292585700,1.222585693359375,0.015331424644589423,0.025855741268396376,0.031681963203847405
1761585609302559500,1.2325595703125,-0.09546879119873046,-0.09546937572062016,-0.031078407820127902
1761585609312533500,1.242533447265625,0.07499474296867847,0.006045709905028343,-0.02123100407719612
1761585609322507300,1.25250732421875,0.02983575081527233,0.12461655974984168,-0.0418379945045337
1761585609332480500,1.26248046875,-0.11650339592099189,0.030002924075722692,-0.03716065034326166
1761585609342454500,1.27245458984375,-0.17970774785280227,-0.044219080954790116,0.09595460195429623
1761585609352428500,1.282428466796875,-0.16100655451416968,-0.009946224474906921,0.14770020595639943
1761585609362401500,1.292401611328125,-0.14608838684558867,0.036762919729948045,0.06914780703876167
1761585609372375600,1.30237548828125,-0.13929624248743055,0.01158931550681591,0.012163206404633819
1761585609382349600,1.312349609375,0.12347732658684253,0.08267419155538082,0.02743325625080615
1761585609392323600,1.322323486328125,0.042454993891716,0.18280279125869273,-0.08585556153785437
1761585609402296600,1.332296630859375,-0.058655018064379685,0.16928747612535952,-0.1254240767404437
1761585609412270600,1.3422705078125,0.0864396815687418,0.1882505352705717,-0.0403311336055398
1761585609422244600,1.35224462890625,0.22238953623771665,0.13799042058587074,-0.051433615443482995
1761585609432217600,1.362217529296875,0.21082184804081916,0.05524959353506565,-0.1439728559963405
1761585609442191600,1.372191650390625,-0.11385697306543588,-0.12887480171620844,-0.025508243004977702
1761585609452165600,1.38216552734375,-0.19320552732944488,-0.21691315065324304,0.10880831137374043
1761585609462139600,1.3921396484375,0.039839550696313376,0.021458967614173888,0.23256847348995505
1761585609472112400,1.4021123046875,0.0653816959708929,0.16482815862894057,0.07613733713254332
1761585609482086400,1.41208642578125,-0.07686229040622711,0.2487836221665144,-0.03206146404072642
1761585609492060400,1.422060302734375,-0.23310440699756144,0.29416005646288396,-0.053150575429201125
1761585609502033400,1.432033447265625,-0.30366818178147076,0.23899171147048473,-0.04156023700907826
1761585609512008200,1.44200830078125,0.3044011722311377,-0.11358604716956615,0.09643332538194954
1761585609521982200,1.451982177734375,0.3069865125492215,-0.3700643154919147,-0.005597089354693889
1761585609531956200,1.461956298828125,0.14530103586018084,-0.231398772123456,-0.11102569516226649
1761585609541929000,1.471928955078125,0.15512363395541906,-0.005028641816973686,-0.14501513159088789
1761585609551903000,1.481903076171875,0.1402794083058834,0.12416940050423145,-0.16292422470375895
1761585609561877000,1.491876953125,0.06438157901763916,0.13055296406149863,-0.1305156277257949
1761585609571850000,1.50185009765625,0.07585983536541462,0.11557985133528709,-0.02773278718665242
1761585609581824000,1.511823974609375,0.025761633244156836,0.15211363848447798,0.03413374027013778
1761585609591798000,1.521798095703125,0.023407179072499274,0.193013219627738,0.032023470117896795
1761585609601772000,1.53177197265625,0.08170446974039078,0.16745149286985397,-0.06729651661626994
1761585609611745000,1.5417451171875,0.06956278104782104,0.09460194523632526,-0.12106522394381462
1761585609621719000,1.551718994140625,-0.0123217214345932,-0.003663198682665825,-0.11770604970902204
1761585609631693000,1.561693115234375,-0.09340542892813682,-0.05183540117740631,-0.0561687542065978
1761585609641666000,1.571666015625,-0.014791910940408706,-0.10673194349110125,0.008286255373433232
1761585609651640000,1.58164013671875,-0.015469956332445144,-0.14866963551044463,0.10768347206227481
1761585609661614000,1.591614013671875,-0.11664309665262698,-0.21256664588153362,0.21868439810946583
1761585609671588000,1.601588134765625,-0.05813946975767612,-0.20141513727009294,0.2903598604623228
1761585609681561000,1.61156103515625,-0.0698737466931343,-0.1015191772788763,0.3380999551501125
1761585609691535000,1.62153515625,-0.008242343166470528,-0.060230304557085036,0.3067205550894141
1761585609701509000,1.631509033203125,0.06028758770227432,-0.01805295856297016,0.22362010094597934
1761585609711482000,1.641482177734375,-0.010596212816238402,0.030017537122964857,0.12463124586232006
1761585609721456000,1.6514560546875,-0.09860241304934024,0.06503858162164687,0.028102643412351608
1761585609731430100,1.66143017578125,-0.135835872900486,0.08589724525511264,-0.040412162952497596
1761585609741404200,1.671404052734375,-0.0503846178472042,0.09263853620886803,-0.09147475312650204
1761585609751377200,1.681377197265625,-0.037626258561015126,0.11824059497714041,-0.09069500092566013
1761585609761351200,1.69135107421875,-0.12101473586559294,0.10915069507062435,-0.14129698785059153
1761585609771325200,1.7013251953125,-0.1057242277532816,0.10264087478518485,-0.19864194622971115
1761585609781299200,1.71129931640625,-0.03379880922734737,0.08230535824298858,-0.12053477032892405
1761585609791272200,1.721272216796875,-0.4741957210958004,-0.11768880631327629,0.03545841300264001
1761585609801246200,1.73124609375,-0.64200961753726,-0.4068552922725677,0.0015754326231777666
1761585609811220200,1.74122021484375,0.059195116290450094,-0.029167642295360563,0.08999116350524126
1761585609821193000,1.75119287109375,-0.0664881959080696,0.4077946189492941,0.13035349596664308
1761585609831167000,1.7611669921875,-0.6886053644955158,0.3099047380834818,0.054153688057139514
1761585609841141000,1.77114111328125,-0.6100941378384829,0.03702303197085857,0.15447013848274946
1761585609851114000,1.781114013671875,-0.27728286368101834,-0.05278174211680889,0.24887035060189663
1761585609861088000,1.791087890625,-0.0713791828200221,-0.19746786094903945,0.14875351440161466
1761585609871062000,1.80106201171875,-0.06641162354052066,-0.1455611481010914,0.01400039523653686
1761585609881036000,1.8110361328125,-0.18425328232795,0.07760171059668064,-0.04888919165767729
1761585609891009000,1.821009033203125,-0.13462971198111773,0.2279308037519455,-0.17134513930752873
1761585609900983000,1.830983154296875,0.18731734607368705,0.4261626348108053,-0.19730404868945478
1761585609910957000,1.84095703125,0.2904237925440073,0.4537164121687412,-0.12945800843164323
1761585609920930000,1.850929931640625,0.05551555099487304,0.2096037044227123,-0.06516377890389412
1761585609930904000,1.860904052734375,-0.06977087084054946,-0.008671966755390167,-0.10318433401212096
1761585609940878000,1.870878173828125,0.1063049502506852,0.07832827130556107,-0.11984930881541221
1761585609950852000,1.88085205078125,0.19896189889907837,0.2852057656347751,-0.15795158739034085
1761585609960825000,1.8908251953125,0.22675269988328217,0.3430950600236654,-0.1478599265627563
1761585609970798800,1.900798828125,0.08412292905896901,0.2981312981814146,0.00577829114049673
1761585609980772900,1.91077294921875,-0.08241700192391872,0.14064298092126845,0.05295271476954221
1761585609990746000,1.92074609375,-0.041996728730201716,0.031814357411861414,0.06477982108760624
1761585610000720100,1.93072021484375,-0.012490355999767779,0.03588672141730785,0.028730346856638788
1761585610010694100,1.940694091796875,-0.022366145586967468,0.040786183896660805,-0.050576560222730035
1761585610020668000,1.95066796875,0.05424772301614284,0.06124211194813251,-0.11425024669934064
1761585610030641200,1.96064111328125,0.18465397208333015,0.07055062304139137,-0.23039054492898284
1761585610040615200,1.970615234375,0.22011720739156007,0.09512392328381537,-0.20187040675692258
1761585610050589200,1.980589111328125,0.09273907397389411,0.10873276191949843,-0.23031627411637454
1761585610060563200,1.990563232421875,-0.04035685256868601,0.05548398681282997,-0.2300033722423017
1761585610070536200,2.0005361328125,-0.22359715846180914,-0.005250760135054588,-0.05841485263295471
1761585610080510200,2.01051025390625,-0.2592649764314294,0.09015899435281753,-0.014983707185462117
1761585610090484200,2.020484130859375,-0.16547873149216175,0.05537526574134826,-0.1345722096402198
1761585610100457200,2.030457275390625,-0.15849311038851738,-0.10467910261452197,-0.27721885853409767
1761585610110431200,2.04043115234375,-0.23254209693968295,-0.2995207067131996,-0.3971514251861721
1761585610120405200,2.0504052734375,-0.159088738194108,-0.5345733251690864,-0.5936937687881291
1761585610130379000,2.06037890625,-0.3344213397026062,-0.5078706116825342,-0.7383525612220168
1761585610140352000,2.07035205078125,-0.5166726345583796,0.2578974874705076,-0.6813526899535208
1761585610150326000,2.080325927734375,-0.6735796447992325,0.46666766367852686,-0.5731898368764669
1761585610160300000,2.090300048828125,-0.41630467314124103,0.4538385772436857,-0.44343985976092515
1761585610170273000,2.10027294921875,0.7513216406494378,0.34014030187129973,0.6412120374187826
1761585610180247000,2.1102470703125,1.6924021753057836,-0.5586316616266965,1.318519032178074
1761585610190221000,2.120220947265625,0.869973154515028,-0.3033896571010351,1.5879972134575246
1761585610200195000,2.130195068359375,0.8688806831032038,0.32452012341320513,0.723697866795212
1761585610210168000,2.14016796875,0.9077280078917741,0.42887949255406854,-0.10390888542700558
1761585610220142000,2.15014208984375,0.9456862748861312,0.1967027217954397,-0.2482612787928432
1761585610230116000,2.1601162109375,0.7389429283306003,-0.09167115248143673,0.015185074976459144
1761585610240089000,2.170089111328125,0.5993599778562784,-0.3260544933736324,0.2266563268367201
1761585610250063000,2.18006298828125,0.7152408579647541,-0.3611129472732544,0.18149324303008615
1761585610260037000,2.190037109375,0.7875222503215074,-0.21406360644102096,0.19263291507326066
1761585610270011100,2.20001123046875,0.8824600033834576,-0.1926554922312498,0.14563052354287356
1761585610279983900,2.20998388671875,0.7465586640313268,-0.04309036918580532,0.04882222736869007
1761585610289958000,2.2199580078125,0.17640782952457665,0.09306173005700111,-0.2682650974289514
1761585610299932000,2.229931884765625,-0.2872396095499396,0.0483066425293684,-0.4724374061863869
1761585610309905200,2.2399052734375,-0.35214024400562044,0.08793488856256007,-0.5274349977217614
1761585610319879200,2.249879150390625,-0.2435606268212199,0.14775778136253356,-0.6309701909981668
1761585610329853200,2.259853271484375,-0.06464636743366718,-0.04143851032555103,-0.5306377758184447
1761585610339827000,2.269826904296875,0.08534545659124851,-0.3581231178075075,-0.6769468562100083
1761585610349800200,2.27980029296875,0.23573534002304075,-0.6535656152963638,-1.3020029277935623
1761585610359774200,2.289774169921875,0.03818096983432769,-0.5298492192566394,-1.39618080239892
1761585610369748200,2.299748291015625,-0.15872458105683326,-0.07762801408171653,0.26711667631249875
1761585610379722200,2.30972216796875,-0.35419513070881364,-0.40198096423447127,1.1610124486088753
1761585610389695200,2.3196953125,-0.7144014845311641,-0.7337041508942842,0.882094531071931
1761585610399669200,2.329669189453125,-1.0832336278796195,-0.7455693607330321,-0.5606183053992688
1761585610409643300,2.339643310546875,-0.7712059062927961,-0.14435644848644733,-1.2998016183570027
1761585610419616000,2.349615966796875,-0.6310860724627971,0.09197568838596343,-1.4192792077831924
1761585610429590000,2.359590087890625,-0.5181014983177185,-0.3324076617926359,-1.3991310305066407
1761585610439564000,2.36956396484375,-0.7954869455903768,-1.1260393349051474,-0.8383503741525113
1761585610449538000,2.3795380859375,-0.9769418293714522,-1.913319008642435,-0.93694394630827
1761585610459511000,2.389510986328125,-0.9458534481465816,-2.1538684709489346,-1.623779451587051
1761585610469485000,2.399485107421875,-0.8905494940757751,-2.197208430981636,-1.9215658818535506
1761585610479459000,2.409458984375,-0.8177110523581504,-2.0251830543249842,-1.936627695776522
1761585610489432000,2.41943212890625,-0.7759773584783077,-1.611342725470662,-1.854421998515725
1761585610499406000,2.429406005859375,-0.8813041113466024,-1.258026715683937,-1.5460931314468382
1761585610509379300,2.43937939453125,-0.9235907629340887,-0.9939531699270009,-1.3360142107278108
1761585610519353300,2.449353271484375,-0.9066934041470289,-0.6384837814986706,-1.3333672033503652
1761585610529326300,2.459326416015625,-0.9819885913670062,-0.1746650775104761,-1.3061870816104113
1761585610539300400,2.46930029296875,-1.0617986256629228,0.1588888317078352,-0.9961275182913988
1761585610549274400,2.4792744140625,-1.0560337785258889,0.2758522463560104,-0.6641042527064681
1761585610559247600,2.48924755859375,-0.9952171985134481,0.20971476358175276,-0.5051961317762732
1761585610569221400,2.499221435546875,-0.8769482542246579,0.1674281119942665,-0.49411257383450863
1761585610579195400,2.5091953125,0.37300036894381045,0.02982347585558891,-1.8685247581481932
1761585610589169400,2.51916943359375,2.3255831742212174,2.2324621151924133,3.889404562321305
1761585610599142700,2.529142578125,-0.5045321149095893,0.41577392726540563,0.7304273211807012
1761585610609116700,2.53911669921875,-1.8511872543781995,-0.8893623301178216,-1.0164407499365509
1761585610619090400,2.54909033203125,-0.39441140576303,0.6244295371830463,0.045785891880095
1761585610629063700,2.559063720703125,-0.3988917660474777,0.9244096781015395,0.4486972688324749
1761585610639037700,2.56903759765625,-0.2711865926325321,0.6664496467888354,0.7562465298309922
1761585610649011700,2.57901171875,0.29056816945075986,0.7861813571065663,1.0411483440831304
1761585610658985500,2.5889853515625,0.5646007991641759,0.9523463172972202,1.0672168513193725
1761585610668958500,2.59895849609375,0.5411202625945211,1.1747533891916275,1.2881065043881534
1761585610678932500,2.608932373046875,0.5009188928484917,1.2128472652643918,1.134970683249086
1761585610688906500,2.618906494140625,0.6501900013834238,0.645150253650546,1.3891359984539449
1761585610698880500,2.628880615234375,0.4813192893654108,0.6243120482832193,1.6781534313313662
1761585610708853500,2.638853515625,0.4087880139008164,0.8158364906579255,1.4605597510680555
1761585610718827500,2.64882763671875,0.4040285444140434,0.8418266719609498,1.4259129467092453
1761585610728801500,2.658801513671875,0.47184652762115,0.8572340844511985,1.627998238325864
1761585610738774500,2.6687744140625,0.4942337159961462,0.7499129428952932,1.6548666637681424
1761585610748748500,2.67874853515625,0.5083206935375929,0.7223498131871223,1.7108527548842132
1761585610758722600,2.68872265625,0.5682072992235422,0.7396972538292408,1.9142896072402595
1761585610768696600,2.698696533203125,0.43707653527408835,0.8027092980593442,2.16409760401845
1761585610778669600,2.708669677734375,0.3008040245220065,0.8605722889631986,2.2450392726927992
1761585610788643600,2.7186435546875,0.4263815382584929,0.6558814910233021,2.3458356886550784
1761585610798617600,2.72861767578125,0.4831199090465903,0.5611310772269964,2.4738211403161285
1761585610808590300,2.73859033203125,0.4955483057260513,0.8832616751551627,2.259564057129621
1761585610818564400,2.748564453125,0.5674737242519855,1.1735557038396596,2.105603767865151
1761585610828538400,2.758538330078125,0.5895645600289106,1.3196890988707541,2.2155407910078764
1761585610838512400,2.768512451171875,0.6679471918702126,1.4192910443514584,2.2480770329535007
1761585610848485400,2.7784853515625,0.42890871864855284,1.6156950754612682,1.680155126542598
1761585610858459400,2.78845947265625,0.8612760533183813,1.918406687170267,2.178868618301302
1761585610868433400,2.798433349609375,1.064998590748012,1.8065332891374826,2.1220251797035337
1761585610878406400,2.808406494140625,1.0585258876025676,1.9097762214690446,2.1159490746602416
1761585610888380400,2.81838037109375,1.253082829540968,2.1159446907460686,2.1206953924044964
1761585610898354400,2.8283544921875,1.2233166368305683,2.241953581637144,1.857997226653993
1761585610908328400,2.838328369140625,0.9200035520970821,2.038612444740534,1.641961297226697
1761585610918301700,2.8483017578125,0.9068757749766111,1.5701011990219353,1.7793094743862747
1761585610928275700,2.858275634765625,0.9238298323869705,1.4989789135724305,1.722275335521996
1761585610938249500,2.86824951171875,0.7431950328171253,1.6695032380163668,1.2108135674796998
1761585610948222500,2.878222412109375,0.7084346850812435,1.5786124222576616,0.9709601246133446
1761585610958196500,2.888196533203125,0.8727981488078832,1.3257733872205018,0.882510710657388
1761585610968170500,2.89817041015625,0.7926713036477565,1.158508356833458,0.7495354878850281
1761585610978144500,2.90814453125,0.6858499283075332,0.9171890791982412,0.7124579492479562
1761585610988117500,2.918117431640625,0.6635322980374098,0.7682131542176007,0.7034621573656797
1761585610998091500,2.928091552734375,0.8856722434282303,0.7431997089922427,0.8532451609455048
1761585611008065500,2.9380654296875,0.8688947116285562,0.804520731395483,0.6802944861374794
1761585611018039600,2.94803955078125,0.5855342815995216,0.6679080289036036,0.2999099982917309
1761585611028012500,2.958012451171875,0.4897048403948545,0.25349077694416045,-0.058066112260520455
1761585611037986600,2.967986572265625,0.3067629329264164,0.04231587768197059,-0.19437997793629763
1761585611047960600,2.977960693359375,0.19977555336952207,-0.06460369733572006,-0.050611704601347444
1761585611057933600,2.98793359375,0.30740824509263037,-0.17838439029455183,0.23154767907485366
1761585611067907600,2.997907470703125,0.14740005396604536,-0.14711831441521644,0.30931312886588275
1761585611077881600,3.007881591796875,-0.1667833843499422,-0.14314473460912705,0.26391280223727226
1761585611087855600,3.017855712890625,-0.2458937459439039,-0.04257014470398426,0.21798114521093664
1761585611097828400,3.027828369140625,-0.296039878860116,0.06557867984771729,0.05499759153537452
1761585611107802400,3.03780224609375,-0.6442021591454744,0.23057985695600508,0.03943908013664186
1761585611117776400,3.0477763671875,-0.7289554950624704,0.5983826572567225,0.15569186229743062
1761585611127749400,3.057749267578125,-0.17510405344963073,0.9134446319729089,0.3669208298344165
1761585611137723400,3.067723388671875,-0.3971452146410942,0.8847048597007989,0.5068116406815126
1761585611147697400,3.077697509765625,-0.7411790168195962,0.7526742243021726,0.3007540479004383
1761585611157671400,3.08767138671875,-0.8860141887336969,0.8158142788261175,-0.15063881669156254
1761585611167644400,3.09764453125,-1.5610054538965223,0.9904606516361236,-0.444952237085253
1761585611177618400,3.107618408203125,-1.986572460901737,0.9963234061896801,-0.46399504693578925
1761585611187592400,3.117592529296875,-2.104689137238264,0.9268646700382233,-0.48728714826125646
1761585611197566500,3.12756640625,-1.9728841272890567,0.7472995455265045,-0.6715500386677682
1761585611207539500,3.13753955078125,-2.101596431919932,0.5709516294956207,-1.0014404569424689
1761585611217513500,3.147513427734375,-2.3392472501754757,0.546193035814166,-1.437126122380048
1761585611227487500,3.157487548828125,-2.1084066964566706,0.5054413387089968,-1.6220669485807417
1761585611237460700,3.167460693359375,-1.7233669301509855,0.44461073017120356,-1.3979936970397828
1761585611247434500,3.1774345703125,-1.3172633330285548,0.4970692316830158,-1.1645673646114767
1761585611257408300,3.187408203125,-0.8252239122062921,0.6741863785207272,-1.0640697854653
1761585611267382300,3.19738232421875,-0.6900941417485476,0.938226606529951,-0.9866417509350925
1761585611277355500,3.20735546875,-0.5649573575168848,1.0066852257281542,-0.9833838451176882
1761585611287329500,3.21732958984375,-0.35070378146171566,0.8053735488325356,-0.8818323730044066
1761585611297303600,3.227303466796875,-0.23631518573760985,0.5906558623969554,-0.8964535304877906
1761585611307276500,3.237276611328125,0.047674189844727516,0.2952110268205404,-0.9121572225108742
1761585611317250600,3.24725048828125,0.0597264466881752,0.11831249116957188,-0.7512148923393338
1761585611327224600,3.257224609375,0.06414718573987484,0.13938392077088355,-0.6782882608816028
1761585611337198600,3.267198486328125,0.12627835548222063,0.05917991872131824,-0.5704253405991941
1761585611347171600,3.277171630859375,-0.15041618691682815,-0.40328678613603114,-0.603246281237714
1761585611357145600,3.2871455078125,-0.2895955250263214,-1.0216063160061835,-0.6607223551832139
1761585611367119600,3.29711962890625,-0.38697219567298885,-1.9694962384164332,-0.7118427399590611
1761585611377093600,3.30709375,-0.5984744271934032,-2.0439842009067535,-0.8491136140987277
1761585611387066600,3.317066650390625,-0.8421984278827905,-2.0534119544655085,-1.2012830111335961
1761585611397040600,3.32704052734375,-0.5788882677137851,-1.9698498741596937,-0.9820208862014115
1761585611407014700,3.3370146484375,-0.6062269410163164,-1.550450157612562,-0.5602431154113262
1761585611416987400,3.3469873046875,-1.2042167995631694,-1.663922807535529,-0.4988188152967021
1761585611426961400,3.35696142578125,-1.3448100961238145,-1.9696710104614494,-0.49073443917091936
1761585611436935400,3.366935302734375,-1.1918904019534586,-1.8615140026032924,-0.5252085538439453
1761585611446909400,3.376909423828125,-0.4231038317620754,-1.4186515774041413,-0.5198022378209978
1761585611456882400,3.38688232421875,0.012116554251313208,-0.7789432225465774,-0.03592438654657453
1761585611466856400,3.3968564453125,0.01861936027407646,-0.3424111694127321,-0.008358279430028051
1761585611476830500,3.40683056640625,-0.3473299211144447,-0.11911036354899406,-0.2969595875209197
1761585611486803500,3.416803466796875,-0.6795353383332491,-0.016098901885747908,-0.34206717828065153
1761585611496777500,3.426777587890625,-0.6553682808041572,0.052120063337683674,-0.30577879899358373
1761585611506751500,3.43675146484375,-0.5275064555227756,0.05414134003221988,-0.2309785556836985
1761585611516726000,3.44672607421875,-0.3544944059163332,-0.19755904636383056,-0.2281131380489096
1761585611526699000,3.456698974609375,-0.14569851074516774,-0.6926578547567128,-0.09983412853507324
1761585611536673000,3.466673095703125,-0.03445464278757572,-0.6460124234378337,0.07246420157775282
1761585611546647000,3.47664697265625,-0.15771861888468264,-0.1416694013595581,-0.015606186465360224
1761585611556620800,3.486620849609375,-0.14349778583049774,-0.1941623896628618,-0.27120102301668375
1761585611566593800,3.49659375,0.20004969413578508,-0.34348493612408637,-0.37811625065281984
1761585611576567800,3.50656787109375,-0.12617840223908425,-0.8755804730027914,-0.5022185042049736
1761585611586541800,3.516541748046875,-0.7569546781003474,-1.5565777005821466,-0.7447269185595214
1761585611596514800,3.526514892578125,-0.39839784505069253,-1.4067466200768948,-0.5627201730493456
1761585611606488800,3.53648876953125,-0.2725017668843269,-1.4646926130890845,-0.17476488462314008
1761585611616462800,3.546462890625,-0.7508820801883935,-1.596251539322734,0.14140965444482861
1761585611626436900,3.556436767578125,-1.1796522671490908,-1.9090438155412672,0.0582709871828556
1761585611636410000,3.56641015625,-1.4112088601827621,-1.7491045979976654,-0.4277766458787024
1761585611646384000,3.576384033203125,-0.7702794390976428,-1.2424813560277224,-1.1947620118670166
1761585611656358000,3.58635791015625,-0.5093564663261175,0.2983469867587089,-1.5743480428114534
1761585611666332000,3.596331787109375,-0.19601824666261672,2.4050685066074133,-0.9783940740063786
1761585611676305200,3.60630517578125,-0.029326047727465627,2.650307588034868,-0.9053242346856742
1761585611686279200,3.616279052734375,-1.0733300735026596,1.529896029883623,-1.6761309855930506
1761585611696253200,3.626253173828125,-2.0264386073440313,0.524202737802267,-2.270124029588699
1761585611706226000,3.636225830078125,-2.83904269195199,0.1270639529019594,-1.9409727392435072
1761585611716200000,3.646199951171875,-1.4397113165676594,-0.021820786663889882,-1.4790718515753745
1761585611726174000,3.656174072265625,0.06358195307254791,-0.08072071940004825,-2.04920792690441
1761585611736148000,3.66614794921875,0.11454466306865214,0.18906185165345668,-2.2625873504735527
1761585611746121000,3.676120849609375,0.26324878537058827,0.5015343943983316,-1.5186132961079477
1761585611756095000,3.686094970703125,0.8769161055207252,0.49769876175820826,-0.9943520330514758
1761585611766069000,3.696069091796875,1.1551724904090166,0.09081482791304588,-0.7583152989290655
1761585611776042000,3.7060419921875,0.9341600877434014,0.04277355832159519,-0.22557163687255233
1761585611786016000,3.71601611328125,0.6776864955961703,0.10456628988981247,0.0740288570785895
1761585611795990000,3.725989990234375,0.24504677372574804,0.23323124824762342,-0.2665717557808384
1761585611805964000,3.735964111328125,0.1584387498527765,0.36983576743304725,-0.6648397273741662
1761585611815937000,3.74593701171875,0.12602642654776572,0.48431496405005453,-0.6783307848490774
1761585611825911000,3.7559111328125,0.3067489044010639,0.5147971960753203,-0.5696273220892996
1761585611835885000,3.765885009765625,0.36216976284980773,0.1305629009336233,-0.6279968742758035
1761585611845859000,3.775859130859375,0.1702466765463352,0.18736440008580685,-0.7786801146309822
1761585611855831800,3.785831787109375,-0.11077391235828399,0.3363140215814113,-0.7766159486427903
1761585611865805800,3.795805908203125,-0.059870239073038095,0.33694004452526566,-0.5778986721545457
1761585611875779800,3.80577978515625,0.05896130753457546,0.26848960863351823,-0.7443081816907972
1761585611885752800,3.8157529296875,0.3722784844100475,0.18203999019265174,-0.7240786828063428
1761585611895726800,3.825726806640625,0.5825175641268492,0.29533260737359524,-0.49299664848186076
1761585611905700900,3.835700927734375,0.7393091312944888,0.5393471154421567,-0.520883274523355
1761585611915675000,3.8456748046875,0.830237356454134,0.7694353894889354,-0.35760424503255633
1761585611925648000,3.85564794921875,1.021659507498145,0.6767740569263696,-0.029065465129096992
1761585611935622000,3.865621826171875,1.1541694508463143,0.10931494572162627,0.22521781846620142
1761585611945596000,3.875595947265625,0.9265361687362194,-0.29495208362340924,0.307458367844671
1761585611955570000,3.88556982421875,0.9095715899318456,-0.3617845629245043,0.08498453259067609
1761585611965543000,3.89554296875,0.7765215483576059,-0.27787703018188475,0.10661009807656519
1761585611975517000,3.905516845703125,0.8293518057912588,-0.232465524572134,0.30189130830205974
1761585611985491000,3.915490966796875,0.8687930048197507,-0.23506313984990118,0.4111609901098534
1761585611995464000,3.9254638671875,0.835763426399231,-0.21652970429360865,0.47483014654181893
1761585612005438000,3.93543798828125,0.9688660749435424,-0.1914011082559824,0.24130325808217748
1761585612015412000,3.945411865234375,1.063588431689143,-0.027425767064094542,0.20866072448417544
1761585612025386000,3.955385986328125,0.9220838655024767,0.15715280169546603,0.2337285667778924
1761585612035359000,3.96535888671875,0.6577788490772247,0.4201654402226209,-0.06326795521993189
1761585612045333000,3.9753330078125,0.4313490975379944,0.8330074056893587,-0.21574971463074907
1761585612055307000,3.98530712890625,0.3633347149759531,1.0488596491128206,-0.15512542405370622
1761585612065280000,3.995280029296875,0.18817513194680213,0.5787316158473491,-0.20948148454884066
1761585612075254000,4.00525390625,0.08270517121553421,0.5572580351859331,-0.09649155837520956
1761585612085228000,4.01522802734375,0.21358020683825016,0.9542483515262603,0.29751778765926135
1761585612095202000,4.0252021484375,0.011454875472187995,0.9783253926843404,0.22243943979404865
1761585612105175000,4.035175048828125,0.00460018727183342,0.8409481355607509,0.07770352700334042
1761585612115149000,4.045149169921875,-0.11490063689947128,1.019009285250306,0.06327686917874961
1761585612125123000,4.055123046875,-0.07104454403817653,1.2626081982553004,-0.011206490201689302
1761585612135097000,4.06509716796875,-0.15073533586859703,1.4573668002456426,-0.0642563452027738
1761585612145069800,4.07506982421875,-0.3061988693028688,1.4669342545360327,0.11779303387273102
1761585612155043800,4.0850439453125,-0.07565525270402432,1.2166951728641986,0.19994458979349583
1761585612165017900,4.095017822265625,-0.13756371960639951,1.0167144523113965,0.2842066350622102
1761585612174990800,4.104990966796875,-0.19657646506726742,0.8456506141632795,0.03726392805464566
1761585612184964900,4.11496484375,-0.4103407963007688,0.9579927987515926,-0.24256803558729587
1761585612194939000,4.12493896484375,-0.4792535890072584,1.1162363182932138,-0.29889300326891244
1761585612204913000,4.134912841796875,-0.5776964275807142,0.9823691151171922,-0.1262078475292772
1761585612214886000,4.144885986328125,-0.6138806706398725,0.8127040378510951,0.053122810639441014
1761585612224860000,4.15485986328125,-0.48553719932138917,0.690039196690917,0.20230127245485782
1761585612234834000,4.164833984375,-0.2973497924149036,0.5503478174060583,0.45625586751848457
1761585612244808000,4.174807861328125,-0.26538638192117214,0.4602683180302381,0.6925252413529902
1761585612254781000,4.184781005859375,-0.3407961354315281,0.45289398986995216,0.8604479319311678
1761585612264755000,4.1947548828125,-0.39092473269104955,0.3266816853612661,0.9099829472117126
1761585612274729000,4.20472900390625,-0.4003454719871282,0.26356851884424687,0.4659199140511453
1761585612284702000,4.214701904296875,-0.30299101317226884,0.20658406434059143,0.38923159197233614
1761585612294676000,4.224676025390625,-0.3051888154774904,0.10976853470802307,0.2930637491261586
1761585612304650000,4.23464990234375,-0.2777867215499282,0.13716507567763328,0.07465009424947201
1761585612314624000,4.2446240234375,-0.3805734345465898,0.18296295025646686,0.2765143269939348
1761585612324597000,4.254596923828125,-0.4459124604195356,0.1741945373892784,0.3086250370038673
1761585612334571000,4.264571044921875,-0.38290012392848727,0.22617197738587855,0.3591075257349759
1761585612344544800,4.274544677734375,-0.22826807288229464,0.33685353528559203,0.3717402128148824
1761585612354518000,4.28451806640625,-0.15096622201502322,0.41514615075588224,0.21319365520607678
1761585612364492000,4.294491943359375,-0.11339783112108706,0.3382674937367439,0.18735439014844596
1761585612374466000,4.304466064453125,-0.160125680026412,0.21663082658052443,0.07725424886588007
1761585612384440000,4.314440185546875,-0.16662439439594745,0.25108546936810017,-0.02273687859550118
1761585612394413000,4.3244130859375,-0.04678980822563171,0.25978666221797464,0.006175875623337924
1761585612404387000,4.334386962890625,0.038544250188767906,0.18698796798884867,-0.033895017877127974
1761585612414361000,4.344361083984375,0.2011263834565878,0.09137889153659343,-0.13987164948889985
1761585612424335000,4.354335205078125,0.263191502225399,-0.003706453302502632,-0.29969178896378723
1761585612434308000,4.36430810546875,0.27002310181111094,0.06300853709876537,-0.4236244215700775
1761585612444282000,4.3742822265625,0.20199965915977955,0.12244213832020759,-0.6373769162353128
1761585612454256000,4.384256103515625,0.17049334478378295,-0.0623451047539711,-0.7401122643709183
1761585612464228900,4.394228759765625,0.2733697818905115,-0.2200350820660591,-0.4787771306019276
1761585612474203000,4.404202880859375,0.504627684238553,-0.2854255458652973,-0.520347815939784
1761585612484177000,4.414177001953125,0.34464784242361785,-0.16115093142092227,-0.45020157244820147
1761585612494151000,4.42415087890625,0.4392357591345906,0.2360024665266275,-0.4850562474040314
1761585612504124000,4.4341240234375,0.3404676341295242,0.5960024841219187,-0.5197359311191365
1761585612514098400,4.444098388671875,0.3023351796120405,0.637393648174405,-0.6537874413534999
1761585612524072400,4.454072509765625,0.21371990756988524,0.7210404841542244,-0.7285657650925219
1761585612534046500,4.46404638671875,0.26932781302332875,0.8002724263012408,-0.8404185587286949
1761585612544019500,4.47401953125,0.2724956294044852,0.7133633736550807,-0.9578140811838209
1761585612553993500,4.483993408203125,0.29362755702137944,0.46008886981010433,-0.8931472554840147
1761585612563967500,4.493967529296875,0.39367373913824555,0.15044307492375372,-0.7104511394701898
1761585612573940500,4.5039404296875,0.359405266572535,-0.1242412966966629,-0.4783694631164893
1761585612583914500,4.51391455078125,0.32037820130288597,-0.29874212355613705,-0.2225398862275295
1761585612593888500,4.523888427734375,0.261479437610507,-0.35547289555966854,-0.20153472679546103
1761585612603862500,4.533862548828125,0.24005261870026587,-0.2567266901254654,-0.37288821380622683
1761585612613835300,4.543835205078125,0.3569330312401056,-0.029743980878591536,-0.5901879526242614
1761585612623809300,4.553809326171875,0.32880525338649746,0.12144611302018164,-0.8631671277619898
1761585612633783300,4.563783203125,0.028754969841241835,0.4048170644432306,-1.6035465186364948
1761585612643757300,4.57375732421875,-0.0346644861459732,0.5279723194688558,-0.9364953988231718
1761585612653730300,4.583730224609375,0.9539078675255179,0.14055530263781546,-0.9279780381076037
1761585612663704300,4.593704345703125,0.5418395167797804,-0.12693535808622836,-0.21934804964996873
1761585612673678300,4.60367822265625,0.31794425215423106,-0.7359212424218654,0.3620872721981257
1761585612683651300,4.6136513671875,0.45200873146802184,-0.9690648123860358,-0.3278475508028641
1761585612693627400,4.62362744140625,0.542192568001151,-0.36022213591337204,-0.7140304592616855
1761585612703600400,4.633600341796875,0.5076382642313838,-0.2477723992973566,-0.544252203944698
1761585612713574400,4.643574462890625,0.30839667160809037,-0.2275122860789299,-0.5426908729121088
1761585612723548400,4.65354833984375,0.15581044717580078,-0.2793511943876743,-0.4195296996023506
1761585612733521400,4.663521484375,0.010871814887225627,-0.4776642739892006,-0.1366121362362988
1761585612743495400,4.673495361328125,-0.1876613372057676,-0.7430722832202911,-0.0659099758950062
1761585612753469400,4.683469482421875,-0.3410860582888126,-0.8847375929266214,-0.18380146517353133
1761585612763443500,4.693443359375,-0.4592503731593489,-0.8086316738456487,-0.18129428639188408
1761585612773416400,4.70341650390625,-0.6194046947583556,-0.8346358836740255,-0.028716007804032412
1761585612783390500,4.713390380859375,-0.7765060585275292,-0.924628873810172,-0.025543624845612792
1761585612793364500,4.723364501953125,-0.8919976470574736,-0.9432213460773229,-0.12120861446987836
1761585612803338500,4.73333837890625,-0.9319611163944005,-0.8072440188795328,-0.10456002454580739
1761585612813311200,4.743311279296875,-0.9243447961717843,-0.7030033076822757,0.026368951487541196
1761585612823285200,4.75328515625,-0.8802496338576078,-0.706592856606841,0.24124745450802146
1761585612833259300,4.76325927734375,-0.8074947787702084,-0.7111316690802574,0.394654347673431
1761585612843232500,4.773232421875,-0.7991486829683184,-0.5701929200828075,0.3878128112155944
1761585612853206300,4.783206298828125,-0.8295449902758002,-0.4612549909800291,0.336777620505169
1761585612863180300,4.79318017578125,-0.8910200341969728,-0.2919640077233314,0.27968238083710895
1761585612873154300,4.803154296875,-0.9155456959053874,0.06481646330356597,-0.0933541645317804
1761585612883127600,4.81312744140625,-0.8246054880470037,0.3990308822572231,-0.5372488279886544
1761585612893101600,4.8231015625,-0.8877189468249678,0.5826455744206905,-0.6042523164751008
1761585612903075600,4.83307568359375,-0.8798024746119976,0.7038193002402782,-0.6040311480050906
1761585612913049300,4.84304931640625,-0.7890823392450809,0.9170821116924285,-0.7173202215220779
1761585612923022600,4.853022705078125,-0.7248375383496284,1.096229887574911,-0.7788795827258378
1761585612932996600,4.86299658203125,-0.588983837531507,1.040854037311673,-0.7843382134579122
1761585612942970600,4.872970703125,-0.4737395017609,1.0504501331746579,-0.7575861078716815
1761585612952943600,4.882943603515625,-0.31784722152054307,1.1256196481883525,-0.6609605478532612
1761585612962917600,4.892917724609375,-0.2432587212651968,1.149468725809455,-0.47365010644439604
1761585612972891600,4.9028916015625,-0.2780781057119369,1.0035983656287193,-0.17649187281252815
1761585612982865700,4.91286572265625,-0.24042554366588592,0.8226403254538774,0.043306313491426406
1761585612992838400,4.92283837890625,-0.31253216397762296,0.4205769436329603,0.10708616375625132
1761585613002812400,4.9328125,-0.36001930681765076,-0.021486440142989158,0.1750201380258426
1761585613012786400,4.942786376953125,-0.38362288524508475,-0.2898316718697548,0.10052249439172446
1761585613022759400,4.952759521484375,-0.4172463379055261,-0.5154273106724023,0.20671916196234524
1761585613032733400,4.9627333984375,-0.4532511327445507,-0.8400567396789789,0.4557278981216252
1761585613042707500,4.97270751953125,-0.3998322617679834,-0.9476473458260297,0.6354032050095498
1761585613052681500,4.982681396484375,-0.32746319112777705,-0.8582184193134307,0.7950742731362581
1761585613062654500,4.992654541015625,-0.27369886771440505,-0.7900210813999176,0.9643153528366237
1761585613072628500,5.00262841796875,-0.23275194029808044,-0.7815314854741096,1.0750780862137674
1761585613082602500,5.0126025390625,-0.1698509552270174,-0.8254775947064161,1.0977565126203
1761585613092576500,5.022576416015625,-0.1607043566972017,-0.8574468504190444,0.9929854208733886
1761585613102549500,5.032549560546875,-0.25982611744552847,-0.747921476817131,0.6340781669508665
1761585613112523500,5.0425234375,-0.14557897601872682,-0.39856384926736355,0.27410949434190984
1761585613122497500,5.05249755859375,0.009659224227070808,-0.13835925389826298,0.09402699489258229
1761585613132470300,5.06247021484375,-0.01592412984073162,-0.0022147534400224684,-0.025307971192523836
1761585613142444300,5.0724443359375,0.032844577242434024,0.11074001008868217,-0.2335941267432645
1761585613152418300,5.082418212890625,0.010008768317103385,0.34507951183915136,-0.5742759516127407
1761585613162392300,5.092392333984375,0.024020927056670187,0.6653858169496059,-0.7917934978999197
1761585613172365300,5.102365234375,-0.011411328591406344,0.7659241664975881,-0.7957944771695882
1761585613182339300,5.11233935546875,-0.16097235998362303,0.6509750142812728,-0.5574589645855128
1761585613192313300,5.122313232421875,-0.14079554113447665,0.6635317135155201,-0.511817303481698
1761585613202287400,5.132287353515625,-0.09567045125067233,0.6337684434145688,-0.5085533332496881
1761585613212260600,5.142260498046875,-0.2718976635113358,0.3286094385534525,-0.3855675165068358
1761585613222234400,5.152234375,-0.3419353685945272,-0.05460545041263103,-0.08990839885892346
1761585613232208400,5.16220849609375,-0.14729542454779146,-0.19392565829753874,0.09869085851777344
1761585613242181600,5.172181640625,-0.14748101024776697,-0.2309276474803686,0.1833135903250426
1761585613252155600,5.18215576171875,-0.16715864740312097,-0.3548684999257326,0.24682386640086768
1761585613262129700,5.192129638671875,-0.1530062034100294,-0.6045043550074101,0.02167129519060254
1761585613272103400,5.202103515625,-0.22522622096836564,-0.7867056732416152,-0.09159162097182125
1761585613282076400,5.212076416015625,-0.17768559437543152,-0.9542395836979151,-0.030564686144329604
1761585613292050400,5.222050537109375,-0.1899281130939722,-1.1401719051539898,0.11186784507483244
1761585613302024400,5.2320244140625,-0.2219116895928979,-0.7001485027730464,0.33542821519020943
1761585613311998500,5.24199853515625,-0.26737989382594823,-0.21962825483083723,0.45673323923926795
1761585613321971500,5.251971435546875,-0.33040625884234903,-0.10110241317152976,0.4887065135398879
1761585613331945500,5.261945556640625,-0.3189046216189861,0.16139526157081127,0.7530608855322003
1761585613341919500,5.27191943359375,-0.1503895911708474,0.597656096547842,1.112420267136395
1761585613351892500,5.281892578125,-0.16520868237912653,0.8253010690957308,1.2776961695328355
1761585613361866500,5.291866455078125,-0.13186521570384502,0.5761614730983973,1.5290851518921553
1761585613371840500,5.301840576171875,-0.013881518097221851,-0.09553367312848568,2.0122895243518055
1761585613381814500,5.311814453125,0.6952960943058133,-0.5751543418824673,2.7019576957732436
1761585613391787500,5.32178759765625,1.2925623147532344,0.7158394083797931,2.839692388032377
1761585613401761500,5.331761474609375,1.2303972427412866,2.6173522438943384,2.349603516755998
1761585613411735600,5.341735595703125,0.4895797527104616,3.1261756262570617,1.9557634811401365
1761585613421708300,5.351708251953125,-2.535734867915511,2.955247397187352,1.77723398328647
1761585613431682300,5.361682373046875,-4.022937418976426,1.6232015055686235,2.219316510154307
1761585613441656300,5.37165625,-2.7174785055100914,-0.1675590448975563,1.1653290696989744
1761585613451630300,5.38163037109375,-0.34487551369965075,0.389217344251275,0.9625925476320087
1761585613461603300,5.391603271484375,0.5572095198690891,0.6110831488758325,1.0387607913594692
1761585613471577300,5.401577392578125,0.6275532221615314,-0.10239186846017836,0.625934242657572
1761585613481551400,5.41155126953125,0.5803875663608312,-0.6387970852315425,0.08898165766913443
1761585613491525400,5.421525390625,1.3402104933738708,-0.5348457123696804,-0.048260063441284
1761585613501498400,5.431498291015625,2.52478852648735,-0.2068108588337898,0.3753736374137923
1761585613511471000,5.44147119140625,3.2028093686044214,-0.15297288566231726,1.0813943566884845
1761585613521445000,5.451445068359375,3.4171757573843,-0.023006781578063965,1.8219632057204842
1761585613531418000,5.461418212890625,3.2881729453742503,0.3159551241636276,2.6427315998226404
1761585613541392100,5.47139208984375,2.8638474628627297,0.5116302564769983,3.1501071214646097
1761585613551366100,5.4813662109375,1.7820979360610245,0.6632452977895736,2.8846947283193467
1761585613561340200,5.491340087890625,0.6840566151499747,0.949357072353363,2.306199551576376
1761585613571313200,5.501313232421875,0.6476444085538386,1.063601875692606,1.864209525297582
1761585613581287200,5.511287109375,1.3508674964666365,0.9139321232289075,1.4159782665416598
1761585613591261200,5.52126123046875,1.5962983010739087,0.5839303535342216,0.754963796544075
1761585613601234000,5.53123388671875,1.3494044381767512,0.3586106090635061,0.15130034934021533
1761585613611208000,5.5412080078125,0.9813912099957466,0.14302607666552067,-0.2556844875961542
1761585613621182000,5.551181884765625,0.9581827683657407,-0.11360416734814643,-0.4301663174942136
1761585613631156000,5.561156005859375,0.5177133757829666,-0.2417661446198821,-0.4286237642273307
1761585613641129000,5.57112890625,0.09332067325413226,-0.008500994102656841,-0.2542709675364196
1761585613651103000,5.58110302734375,-0.2628033796906471,0.5457905924931168,0.3115475368544459
1761585613661077000,5.591076904296875,-0.7302426122635602,0.6480880606681108,0.7024249963376671
1761585613671051000,5.601051025390625,-0.8502350193440914,0.11084142463654278,0.530202233945392
1761585613681024000,5.61102392578125,-0.11298866579830646,-0.3038993601888418,-0.14060822013514115
1761585613690998000,5.620998046875,0.5334919596731662,-0.5083212780594826,-0.8068801540032029
1761585613700972000,5.630971923828125,0.018663199415802953,-0.568882714267075,-1.1703379839021713
1761585613710945000,5.640945068359375,-1.5425889227181673,-0.1726876399576664,-0.492455052418448
1761585613720919000,5.6509189453125,-1.631255632686615,0.5548223324716091,0.9649673139393329
1761585613730893000,5.66089306640625,-0.5907148991078138,0.7344441556066275,1.34932713515684
1761585613740867000,5.6708671875,0.9992956999987364,0.6320427886657416,0.42669480545874683
1761585613750840000,5.680840087890625,2.11392809022665,0.712439829069376,0.03756915807891637
1761585613760814000,5.69081396484375,2.3928724573791027,0.5166181278921663,0.46105113897100086
1761585613770788000,5.7007880859375,1.5819178935438394,0.36799262378439307,0.9523376225341111
1761585613780762000,5.71076220703125,0.34812077923119067,0.685429803199321,1.3604608158506453
1761585613790735000,5.720735107421875,-0.1317915659457445,0.7623071450442075,0.7213714696742594
1761585613800709000,5.730709228515625,0.2090063230514526,0.4134918076775968,-0.24868936801180241
1761585613810683100,5.74068310546875,0.26178280447125435,0.02026698135063052,-1.1792274658657609
1761585613820656000,5.75065625,-0.14719547130465507,0.09978197822272777,-1.7634416047774255
1761585613830630100,5.760630126953125,-1.1644359933167696,0.39884427364394065,-1.5173491213910282
1761585613840604200,5.770604248046875,-2.0912562396913765,0.8639259833052754,-0.5888464748874306
1761585613850578200,5.780578125,-2.180159681025147,1.206958061095327,0.1153990148756653
1761585613860551200,5.79055126953125,-1.6894073774039744,0.888392023780942,0.3227227916676551
1761585613870525200,5.800525146484375,-0.6503226878523827,0.339938349558413,0.1828566403377801
1761585613880499200,5.810499267578125,0.027931963020563125,0.4653373649228364,-0.03493190491050482
1761585613890472200,5.82047216796875,-0.5501110860407352,0.6200847129117697,-0.12811448486819862
1761585613900446200,5.8304462890625,-1.2862813347876072,0.9208066851735115,-0.18607187605723738
1761585613910420200,5.840420166015625,-1.930823685672879,1.3311464585609734,-0.5885550907254219
1761585613920394200,5.850394287109375,-2.0747247916072604,1.3135533725947142,-1.2893627880595624
1761585613930367000,5.860366943359375,-1.1009311971336602,0.7795694646861404,-1.5222957840129732
1761585613940341000,5.870341064453125,0.2073860283732414,0.025200583561602978,-1.1342018908336757
1761585613950315000,5.88031494140625,0.9622411038458347,-0.048202104442659766,-0.2053442934125662
1761585613960289000,5.8902890625,1.7169892118126153,0.16818108578603713,0.37548458697497844
1761585613970262000,5.900261962890625,1.7068763985991477,0.015316592401638626,-0.06356894746050239
1761585613980236000,5.910236083984375,0.8248036409676075,-0.006966386680211872,-0.5946769346065819
1761585613990210000,5.9202099609375,0.41550387815237044,-0.19072488949485122,-0.793725050484389
1761585614000183000,5.93018310546875,0.20328326922953127,-0.30354833652777596,-0.6408547484137117
1761585614010157000,5.940156982421875,-0.5621434691399335,-0.2145841414500959,-0.13540025796219707
1761585614020131000,5.950131103515625,-1.185785655337572,-0.18276596637964249,-0.1996170018069446
1761585614030105000,5.96010498046875,-0.035384032592177386,-0.08958525871862656,-0.06766936851665377
1761585614040078000,5.970078125,1.9273148007690906,0.03867884548702277,0.1693150947846472
1761585614050052000,5.980052001953125,3.0523703853338957,-0.12632005746578798,0.3555301787048578
1761585614060026000,5.990026123046875,4.245896279534698,-0.8683923881296068,0.24387626864165066
1761585614069999000,5.9999990234375,3.786419404143095,-1.0869360625941307,0.1052342522792518
1761585614079972900,6.009972900390625,1.9515707056254148,-0.978746686836332,0.21380539389625192
1761585614089947000,6.01994677734375,1.1047066240191459,-1.1676570011898875,0.08839593020305037
1761585614099921000,6.0299208984375,1.1396522651940584,-0.6238932383492589,-0.05978285305052995
1761585614109894100,6.03989404296875,1.5286936683565377,0.22250673287659883,-0.25439678587317466
1761585614119868200,6.0498681640625,1.2176093650996684,0.16057897675186394,-0.4403735309928655
1761585614129842000,6.059842041015625,1.191224046999216,0.05970189676880836,-0.6174304720759392
1761585614139816000,6.06981591796875,0.7969447431832551,0.5691635770350695,-0.8154933763086796
1761585614149789200,6.0797890625,-0.2831915032029152,0.9645838675796985,-0.8267445459023117
1761585614159763200,6.08976318359375,-2.9510534526288508,0.4389814921125769,-0.4486944923534989
1761585614169737200,6.0997373046875,-7.7667311488360165,-0.7379086168467998,0.6328466523945331
1761585614179710200,6.109710205078125,-9.26455037097931,-1.503840089868009,0.6130310680732131
1761585614189684200,6.119684326171875,-4.8275908368408675,-0.791571817973256,-0.1246416941910982
1761585614199658200,6.129658203125,-0.6964174995511769,0.058742696347832676,0.3110898562148213
1761585614209632300,6.13963232421875,1.1633382612079382,0.48411885695606466,0.41940263915657994
1761585614219605000,6.14960498046875,1.4729174205988644,0.6642889616236091,0.21642507487535476
1761585614229579000,6.1595791015625,0.9582003040224313,0.48349020366370676,0.4435407628521323
1761585614239553000,6.169552978515625,0.7338695705890655,-0.17121026088148356,0.5312760371893644
1761585614249527000,6.179527099609375,-0.01694528958201408,-0.925126886460185,0.09126227941960095
1761585614259500000,6.1895,-0.2582885326147079,-1.2545172462582588,0.05812982514649629
1761585614269474000,6.19947412109375,-0.19239596451222896,-0.607885521878302,0.3692129593595862
1761585614279448000,6.209447998046875,0.15251462050080297,0.5063745279058813,0.8079685337617993
1761585614289421000,6.219421142578125,0.5670131210029125,0.995432010307908,1.0119228341206907
1761585614299395000,6.22939501953125,0.5474982731938361,0.9268699307352304,1.090006775276363
1761585614309369000,6.239369140625,0.22427754194140434,0.6919327553525567,1.0083940754726528
1761585614319343000,6.249343017578125,0.06238952841758728,0.18444266742020846,0.7312079501643777
1761585614329316000,6.259316162109375,-0.3172714674592018,-0.3983548826918006,0.5663888516247272
1761585614339290000,6.2692900390625,-0.784322577497363,-0.8177659974157809,0.6346916957393288
1761585614349264100,6.27926416015625,-1.3605208754748106,-0.9824065245181322,0.747785283216834
1761585614359238100,6.289238037109375,-1.5696493636012077,-0.895066679239273,0.4437541133418679
1761585614369211100,6.299211181640625,-1.433091021645069,-0.7121347086429596,-0.15752514213919638
1761585614379185000,6.309184814453125,-1.1541127522230148,-0.7300216629892587,-0.6099439157128334
1761585614389159000,6.319158935546875,-0.6559434503436088,-0.6593316314771771,-0.6889461407572031
1761585614399132000,6.3291318359375,-0.3451975852608681,-0.5027826408937573,-0.2841124174401164
1761585614409106000,6.33910595703125,-0.2750689870238304,-0.39930063910931346,-0.03176058139801025
1761585614419080000,6.349079833984375,-0.47656069666147227,-0.4321352794796228,-0.006451368096470832
1761585614429054000,6.359053955078125,-1.1432996817857026,-0.5152946242034435,-0.3473372276380658
1761585614439027000,6.36902685546875,-1.874500909948349,-0.8237351349532603,-0.7291977793857455
1761585614449001000,6.3790009765625,-2.0724246979713437,-0.9806953366860747,-0.41831396713703867
1761585614458975000,6.38897509765625,-1.9469775326162575,-1.2263523512646555,0.09711305127441883
1761585614468948200,6.3989482421875,-1.5418039098203182,-1.5429086561918257,0.27921938470155
1761585614478922200,6.408922119140625,-1.3067875317215918,-1.6038950398132203,0.12295388723462819
1761585614488896300,6.418896240234375,-1.5675287181854247,-1.4546689394637942,-0.23486732501685617
1761585614498870000,6.4288701171875,-1.664586824402213,-1.3004153663411735,-0.8215417165622114
1761585614508844300,6.43884423828125,-1.9032278227388857,-0.9044695906177163,-1.234963820004463
1761585614518818300,6.448818359375,-2.2316905462980268,-0.49000060847103594,-0.9725359956279397
1761585614528792300,6.458792236328125,-3.0597499741911887,-0.42023792093694207,-0.8688637319684028
1761585614538766300,6.468766357421875,-3.4380361745834347,-0.44635406670719385,-1.2524106293678283
1761585614548739300,6.4787392578125,-3.053464025789499,-0.44113107136189933,-1.927349287560582
1761585614558713300,6.48871337890625,-3.3495629413604733,-0.5404283348076045,-2.260119060663879
1761585614568687400,6.498687255859375,-3.086517569607496,-0.4845829673364758,-2.3176129259943963
1761585614578660400,6.508660400390625,-2.2123978168070315,-0.32126345970481635,-2.54165870500654
1761585614588634400,6.51863427734375,-1.2535270661771296,-0.39981545676365493,-2.5643881309479473
1761585614598608100,6.528608154296875,-0.4492646934568882,-1.0031751717805861,-2.448571840508282
1761585614608582100,6.53858203125,0.8458610420435666,-2.3968808162376285,-0.9498537698291242
1761585614618555400,6.548555419921875,4.9085704994380475,-3.8065696272462604,1.7173307187266647
1761585614628529400,6.558529296875,6.741600165835022,-3.1947692700117822,1.050089775429666
1761585614638503400,6.56850341796875,6.800405406025051,-1.9282105805650351,0.7702749090529978
1761585614648476400,6.578476318359375,6.014815000548959,-0.7843102294724434,0.8600658007457852
1761585614658450400,6.588450439453125,4.119738920083642,0.5733029053295031,0.9596870354488491
1761585614668424400,6.598424560546875,-0.6419295380383729,2.421623043306172,1.6375240454316138
1761585614678398500,6.6083984375,-5.743365957587957,5.466618223696947,8.539391930112242
1761585614688371500,6.618371337890625,-1.0404688373863697,1.9979633312270044,9.712145085397362
1761585614698345500,6.628345458984375,2.1417957558393477,-3.0627412649616597,1.2289755393750965
1761585614708319500,6.638319580078125,2.7612434129565955,-1.6627689613252876,-1.2012282852716742
1761585614718293500,6.64829345703125,2.9385815090686083,-0.7498902196068317,-0.9073192809604108
1761585614728266200,6.658266357421875,1.5206372031509876,-0.45554830377101896,-0.8614905728518962
1761585614738240300,6.668240234375,0.7966413763225079,0.0076315177917480465,-0.8063970466613769
1761585614748214300,6.67821435546875,-0.9730132577508688,0.05921981234028935,-0.369099562112987
1761585614758187300,6.688187255859375,-4.865551441922784,0.6199892166480422,0.8203017995037138
1761585614768161300,6.698161376953125,-4.526083340224623,1.33303198004663,2.2789307286396623
1761585614778135300,6.70813525390625,-0.15379238535165785,1.5737673203140496,1.6411337603613734
1761585614788109300,6.718109375,1.0845347736060618,1.2927104910522698,0.7194675357490777
1761585614798082300,6.728082275390625,0.5204132823914289,1.379229959858954,0.5030918529734015
1761585614808056300,6.738056396484375,-0.8837327997982501,2.208927802608907,0.5406416852973401
1761585614818030300,6.7480302734375,-2.051403537252545,2.7732912858858705,0.16557123208120464
1761585614828003300,6.75800341796875,-1.5906436363130807,2.7049717828974127,-0.6629241030111909
1761585614837977300,6.767977294921875,-0.8157727777719497,1.9373241536080836,-1.3126201833978295
1761585614847951400,6.777951416015625,-0.42095512929558754,1.1814976027548312,-1.2750520847648381
1761585614857925400,6.78792529296875,0.12821721459031105,1.0316250211954117,-0.6241884219035506
1761585614867898000,6.797898193359375,0.6133335581511259,1.3662392531216143,0.2615171392723918
1761585614877872000,6.8078720703125,0.7166817044228315,1.0589917515486478,1.0071353075832128
1761585614887846100,6.81784619140625,0.667435150694847,0.4839046296834945,1.169740091074258
1761585614897820200,6.827820068359375,0.7338374218851328,0.2569029234752059,0.7012184700921178
1761585614907793400,6.83779345703125,0.6173889710217714,-0.12245149067044257,0.21564415363073347
1761585614917767200,6.84776708984375,0.48052200150787827,-0.9463435697510838,0.7093360178351402
1761585614927741200,6.8577412109375,1.7163105818986892,-1.0975517838284372,1.1857307102799415
1761585614937714400,6.86771435546875,1.4522814598053693,-0.9845745162069797,0.6626277504131197
1761585614947688400,6.8776884765625,0.09570493804216385,-1.5052207305714487,0.13233064125850796
1761585614957662500,6.887662353515625,-0.14468144265711308,-1.74607443652153,0.009406126248836516
1761585614967636200,6.89763623046875,-0.7219464930832385,-1.965406631015241,-0.28088052284680304
1761585614977609500,6.907609375,-1.166255609959364,-1.9130495440512894,-0.737558999691531
1761585614987583500,6.91758349609375,-0.6883411606013774,-1.2697647920116781,-1.106780142357573
1761585614997557500,6.9275576171875,1.6531699428528546,-0.6661623542800545,-2.4863988823384044
1761585615007531500,6.937531494140625,1.2850175984621046,-0.9724459792569279,-3.940098684509098
1761585615017504300,6.947504150390625,0.009192775759100914,-1.048627593922615,-3.4198107820630073
1761585615027478300,6.957478271484375,-0.7096458144366741,-1.7342732318297027,-2.5167238779753447
1761585615037452300,6.967452392578125,-0.4960802206456661,-1.6587191014125942,-2.0894339927002785
1761585615047425300,6.97742529296875,-0.03980769425332546,-0.9909817529007792,-1.9350578161112963
1761585615057399300,6.9873994140625,0.7497171280622482,-0.13717413576692342,-2.04730530815348
1761585615067373300,6.997373291015625,0.7207897242635488,0.17964169687926768,-1.1086637641470878
1761585615077347300,7.007347412109375,-0.01666179646551609,-0.177166246676445,-0.4803215104997158
1761585615087320300,7.0173203125,1.3215689212679862,0.13405337339788675,-1.226692543004453
1761585615097294300,7.02729443359375,2.0354314766168593,0.46968905732631683,1.0513422597087918
1761585615107268400,7.037268310546875,1.1622557266682385,-0.6819891612261534,2.2055723547011614
1761585615117242400,7.047242431640625,0.3959481138110161,-1.3951619807451963,0.38200251750163733
1761585615127215400,7.05721533203125,-0.11364099222719669,-0.7468705064594745,0.0009442403138615191
1761585615137189400,7.067189453125,-0.11543079825341701,-0.31706805384159087,0.3030657223762944
1761585615147163400,7.077163330078125,0.2135299379557371,-0.022680033841729164,0.7697581917025148
1761585615157136400,7.087136474609375,0.304609554284811,-0.406847401227057,0.5616001560434699
1761585615167110400,7.0971103515625,0.36865094156265255,-0.704175858592987,-0.21925554906092584
1761585615177084400,7.10708447265625,0.6214362005859613,-0.7402946352005004,0.30722499748021365
1761585615187058200,7.11705810546875,0.7239058104574679,-0.6502531297475099,0.8514438106119632
1761585615197031200,7.12703125,0.08165595442354678,-0.7482394567251205,0.5502759212136268
1761585615207005200,7.137005126953125,-1.2561959931254387,-0.6575149374440312,0.6286063844762743
1761585615216979200,7.146979248046875,-0.08405424773693085,-0.5173863357856869,-0.4909732528954744
1761585615226953200,7.156953125,-0.9209446323394774,-1.053757942548394,-0.9776131527617573
1761585615236926200,7.16692626953125,-1.5548042611688375,-0.9405363447770476,-0.0705865711376071
1761585615246900200,7.176900146484375,-0.5821633438616991,0.4198264175266027,0.8659764860942959
1761585615256874200,7.186874267578125,0.5152198054015636,2.255470650336146,2.061685861814022
1761585615266847500,7.196847412109375,-0.9779325939744711,1.6284700936213135,3.1872567024245857
1761585615276821200,7.2068212890625,-1.2037012512564658,-1.1092167949199676,0.39204993732869625
1761585615286795300,7.216795166015625,-0.8367401624768972,-2.1622519761517642,0.02344575751721859
1761585615296769300,7.226769287109375,0.5685609349668026,-1.1953387888416647,-0.05397182868421077
1761585615306742500,7.236742431640625,1.276065061199665,0.8748045201942324,-0.7506091084659099
1761585615316716500,7.246716552734375,2.007802295935154,-0.48158670812994236,-0.32232173658609387
1761585615326690600,7.256690673828125,1.1701567090511322,-2.7260660088524222,-0.8175713516265153
1761585615336663300,7.266663330078125,-0.4134492837101221,-3.6024519530192016,-1.787453325614333
1761585615346637300,7.27663720703125,-1.036632035702467,-2.2119018499836325,-1.6548299850195645
1761585615356611300,7.286611328125,-0.14356208323836325,0.6593328005209564,-1.7533412126541137
1761585615366585300,7.29658544921875,2.0429899291723967,1.766796906554699,-0.6047989540398121
1761585615376558300,7.306558349609375,3.223331347629428,0.7159782323285937,0.4635866487979889
1761585615386532400,7.316532470703125,2.822330042082071,-0.6995873617589473,0.7965817550897598
1761585615396506400,7.32650634765625,2.4142238729655743,-1.0268903938889502,0.5026549228608608
1761585615406480400,7.33648046875,1.0959604229837656,0.11077040522694587,-1.3085042725116014
1761585615416453400,7.346453369140625,0.21738427529633045,0.5760891385145485,-2.4636627343952653
1761585615426427400,7.356427490234375,0.651821401977539,-0.32786797253638506,-2.2445061887294053
1761585615436401400,7.3664013671875,0.3832809399396181,-0.6541228107877075,-2.585243287450075
1761585615446374400,7.37637451171875,0.5416746816068887,-0.16831731591895222,-2.727047128844261
1761585615456348400,7.386348388671875,0.795874483603239,0.20196721819490193,-2.118781375476718
1761585615466322400,7.396322509765625,0.10325170015990734,0.20874591854959726,-1.330277128380537
1761585615476296400,7.40629638671875,-0.6890601225256919,0.30253216348886486,-1.041107719811797
1761585615486269200,7.416269287109375,-4.00784155665338,1.6726181551665067,0.19159107787013052
1761585615496243200,7.4262431640625,-7.556044909873604,3.4840368782579896,2.1301918272852896
1761585615506217200,7.43621728515625,-3.9360622685998674,3.0883874551326036,4.405606949019432
1761585615516190500,7.4461904296875,-2.3210458230525255,2.563389475299418,4.764087209701538
1761585615526163500,7.45616357421875,-2.0170739821493626,2.515359896145761,3.3365321948736906
1761585615536137500,7.466137451171875,0.04673603221178055,1.389030053861439,0.012199556359648703
1761585615546111500,7.476111572265625,2.0061054288893936,-1.9986293939203024,-3.0961124964267013
1761585615556084700,7.486084716796875,5.962923485270142,-4.339776340237259,-4.563426105669141
1761585615566058800,7.496058837890625,3.969735990142822,-2.334196396526694,-5.046242355594039
1761585615576032500,7.506032470703125,-1.5588123277664183,0.7034925525039434,-0.8211457029819488
1761585615586006500,7.516006591796875,-3.5968507720112797,1.9102970304727553,4.1069302919149395
1761585615595979800,7.525979736328125,-4.880034140783548,3.063075319221616,3.6318016738831993
1761585615605953800,7.535953857421875,-6.094937754055858,4.115553743353486,1.9744132365524767
1761585615615927800,7.545927734375,-5.647648744586109,3.9569390524119137,1.6214701517313719
1761585615625901600,7.555901611328125,-2.5743676731705665,2.9824077913135287,0.48932373212277885
1761585615635874600,7.56587451171875,1.4485861124187707,1.712778316119313,-0.4803074819743633
1761585615645848600,7.5758486328125,3.1999300137758255,0.3545855913311243,-0.5572200412631034
1761585615655822600,7.585822509765625,3.2838328703433275,-1.056235146316886,-0.2642237678825855
1761585615665795600,7.595795654296875,3.2785902935147284,-2.1779005039215087,-0.6934697556614875
1761585615675769600,7.60576953125,3.3552927171841262,-1.823036095649004,-1.0093529836326838
1761585615685743600,7.61574365234375,2.5085402792587876,-0.2794873879879713,0.2471054598212242
1761585615695717600,7.625717529296875,-0.8958826717972755,1.396110075250268,0.9916437239408492
1761585615705690600,7.635690673828125,-3.5511081347510216,2.303134903308749,1.3601800992131232
1761585615715664600,7.64566455078125,-4.682601643408835,3.4427082580476998,1.8675456839829683
1761585615725638700,7.655638671875,-4.883224753518403,3.58148252248764,2.4284306774944064
1761585615735612700,7.66561279296875,-4.210651070891321,2.844891417980194,2.5331489430755374
1761585615745585700,7.675585693359375,-0.7967693866163492,2.628850958508253,1.1258826830387114
1761585615755559700,7.6855595703125,1.8425421756297349,0.9669254622697829,0.7003361342996358
1761585615765533700,7.69553369140625,2.086104556016624,-0.8387707915216683,0.8484481359273195
1761585615775506400,7.70550634765625,1.7322107463419436,-1.6436849061489105,0.8035150614842772
1761585615785480400,7.71548046875,1.1427692281708122,-1.3572387850642202,0.5047670927092432
1761585615795454500,7.725454345703125,0.12769757463037967,-0.4411778331130743,0.9805302092522382
1761585615805428500,7.735428466796875,-0.6485466180905699,0.07364040575027465,1.8765739168301223
1761585615815401500,7.7454013671875,-0.656133419957757,0.7432102303862571,2.1980741079002617
1761585615825375500,7.75537548828125,2.9191940870314834,-0.48235740024149415,3.1324983995378015
1761585615835349500,7.765349609375,2.400575579102337,-0.16035539712905883,1.3747268032208084
1761585615845323500,7.775323486328125,4.716150569528341,-0.2926017211049795,0.8186500867739319
1761585615855296500,7.785296630859375,1.9000225969567894,0.2312842058330774,1.3756453793704508
1761585615865270500,7.7952705078125,-0.7325589263819158,0.9368757764428853,1.6381255184561012
1761585615875244500,7.80524462890625,-1.768352319303155,0.4342793057709932,2.0684085941977797
1761585615885217800,7.8152177734375,-1.2226859377115964,-0.6454045206725597,1.7595052882418036
1761585615895191600,7.825191650390625,0.2185194168061018,-1.1670751096487044,1.0847867025405167
1761585615905165600,7.83516552734375,1.3201346506811678,-1.6253963852643967,0.5966506458323448
1761585615915139600,7.8451396484375,1.5854104118347168,-1.9743144523531198,0.15876447467580437
1761585615925112600,7.855112548828125,1.3935615598112343,-1.9566379258871078,-0.386442326579988
1761585615935086600,7.865086669921875,1.3131120585680007,-1.8922651146978138,-0.710114016470313
1761585615945060600,7.875060546875,1.625453668409586,-1.5741612880676983,-0.6407933736152946
1761585615955034400,7.885034423828125,2.230887997743487,-0.8369085047811269,-1.0595471934743226
1761585615965007600,7.895007568359375,1.7173025155454873,-1.3516858271121979,-0.9014429362729192
1761585615974981600,7.904981689453125,2.3278666089832782,-1.4019880273729561,-0.27818974939286706
1761585615984955600,7.91495556640625,1.6040739035114644,-1.4752677831172942,-0.5007637022867798
1761585615994928600,7.9249287109375,0.08357976209297775,-1.8221283331543205,-0.7436974293813109
1761585616004902700,7.934902587890625,-0.8811072736002504,-1.849509676554799,-0.3153580350533128
1761585616014876700,7.944876708984375,-0.9277449600040912,-1.3077303655296564,0.42686230751276016
1761585616024850700,7.9548505859375,-0.8083473039463162,-0.2999310410797596,1.0015344188362358
1761585616034823700,7.96482373046875,-0.8894321804836391,0.5799971057385206,1.579695249058306
1761585616044797700,7.974797607421875,-0.062248658642172806,1.0607885718375443,1.7037895384997128
1761585616054771700,7.984771728515625,0.7000979416295886,0.9935375748634337,1.367984050962329
1761585616064744400,7.994744384765625,1.4482318921536206,0.3577209667474031,0.8485989425748586
1761585616074718500,8.004718505859374,1.4916205136336385,-1.075254319563508,0.5667863265097141
1761585616084690700,8.014690673828126,1.6293723031580447,-1.4362036007076502,0.22353578366339205
1761585616094664400,8.02466455078125,0.853715847197175,-2.854602080133557,0.08577157304883003
1761585616104638500,8.034638427734375,0.7836497928023338,-3.557105621600151,-0.19274433955848216
1761585616114612500,8.044612548828125,1.0996928875103593,-3.4573084458082914,-0.9282833046644926
1761585616124585700,8.054585693359375,0.9244228298440575,-3.0307144338428973,-1.2797229991853236
1761585616134559700,8.064559814453125,0.8669117211177945,-2.4966245082765814,-0.6072890172898769
1761585616144533800,8.07453369140625,1.597015801693499,-1.8746335964173078,0.13721008386313915
1761585616154507500,8.084507568359374,1.822864538474381,-1.6331933227509259,0.0018096797704696655
1761585616164480800,8.094480712890626,1.296393563479185,-1.7102493821635842,-0.6096013858854771
1761585616174454800,8.104454833984375,0.6462044388785958,-1.7432704850167036,-1.1056909588813781
1761585616184428800,8.1144287109375,0.41104163804650307,-1.6436805222347377,-1.2614935150116682
1761585616194401500,8.124401611328125,-0.18741320766359568,-1.6873001759916544,-0.8955629383236169
1761585616204375600,8.13437548828125,-0.31143969256579873,-1.7732824691817164,-0.2981815670639276
1761585616214349600,8.144349609375,-0.041167292168736457,-1.604716585329175,-0.5363783287644386
1761585616224323600,8.154323486328124,-0.5332493830889463,-1.3376906195074318,-0.8891337820589542
1761585616234296600,8.164296630859376,-0.35309973668754097,-1.0779859364844857,-0.3119616706132889
1761585616244270600,8.1742705078125,0.24096301154345273,-0.6994596437260509,0.46405368178784845
1761585616254244600,8.18424462890625,0.5974272562280297,-0.7258519760891795,0.768912242397666
1761585616264218600,8.194218505859375,0.414421051351726,-1.1426043199326843,0.668783642694354
1761585616274191600,8.204191650390625,0.6082441260576248,-1.61453596855402,0.5461965429455041
1761585616284165600,8.21416552734375,1.0770265899330378,-1.8697559073783456,0.25158757367134094
1761585616294139600,8.2241396484375,1.0501508579671381,-1.8685897862084209,-0.17405308309197426
1761585616304112600,8.234112548828126,0.4681099714413285,-1.4297013792067765,-0.9355109178304671
1761585616314086700,8.244086669921876,0.025227087976038454,-0.8622557850707322,-1.3560112890958784
1761585616324060700,8.254060791015625,0.13697101441025733,-0.5301027556262911,-1.2379594946891068
1761585616334034700,8.26403466796875,0.037327567875385284,-0.4353459486218169,-0.7861679131031036
1761585616344007400,8.27400732421875,-0.17348668138086795,-0.173032690535672,-0.22143968816697596
1761585616353981400,8.2839814453125,-0.044855040770769114,0.4252265960697084,0.05818681603074073
1761585616363955500,8.29395556640625,0.5550321758300065,1.1014084592565894,0.2878530652731657
1761585616373929500,8.303929443359374,1.0878098497539759,1.324738198953867,0.7015770742714404
1761585616383902500,8.31390234375,1.1186983244925737,0.9025750090427697,1.2243658536225557
1761585616393876500,8.32387646484375,0.787940767994523,0.36974867367148395,1.4568740482926368
1761585616403850500,8.3338505859375,0.49078123745471236,-0.19673194788992404,0.952419382533431
1761585616413823500,8.343823486328125,0.13209230245798825,-0.6009107144296169,-0.17322423105239868
1761585616423797500,8.353797607421875,-0.4537786637499928,-1.0076439877577126,-0.9129290836662054
1761585616433771500,8.363771484375,-0.8617471779614686,-1.10920305865556,-0.6323614992260933
1761585616443745500,8.37374560546875,-0.31859307145178317,-0.6530737401261926,0.07138473577797412
1761585616453718800,8.38371875,0.9759411278963088,-0.43228374803960323,0.026768179938197134
1761585616463692500,8.393692626953126,0.5040916776657104,-0.5850003208532929,-0.785672823062539
1761585616473666600,8.40366650390625,-0.4678150801479816,-0.8050465088352561,-1.8300170405775307
1761585616483639600,8.4136396484375,-0.9257955795019864,-0.7743462501451372,-2.5492215414762494
1761585616493613600,8.423613525390625,-1.2592118338152765,-0.5427841041535139,-2.256132913637161
1761585616503587600,8.433587646484375,-0.7944865363761782,-0.5821899396076798,-1.3477321210503577
1761585616513561600,8.4435615234375,-0.11636457197219133,-0.549469865527749,-0.6895534590005874
1761585616523534800,8.453534912109374,0.0027358547046780583,-0.5100108385816217,-0.152827924233675
1761585616533508900,8.4635087890625,-0.0877791134789586,-0.40510581825673575,0.33420097495019435
1761585616543483000,8.47348291015625,0.11633154648542403,-0.20003917274177074,0.45091304518580433
1761585616553457000,8.483456787109375,0.23373627516031265,-0.0815466488301754,0.2382119592696428
1761585616563429600,8.4934296875,0.2899567595541477,0.0011547229930758476,0.11795943994820117
1761585616573403600,8.503403564453125,0.6150877083420753,-0.02686462604999542,-0.04764963992536068
1761585616583377700,8.513377685546875,0.07201952655017375,-0.3654045069873333,-0.2087152311503887
1761585616593350700,8.5233505859375,-0.7122434297144412,-0.7263435589984059,-0.06668693335056304
1761585616603324700,8.53332470703125,-0.8054249867588281,-0.46532150976657866,-0.18490590101778506
1761585616613298700,8.543298583984376,-0.9732619718149303,0.026103286288678643,-0.15474106437861918
1761585616623272700,8.553272705078125,-0.8234563180118799,0.2509858083859086,-0.030300445717573163
1761585616633245700,8.56324560546875,-0.5569421011045574,0.08301409103423356,-0.28656887068152426
1761585616643219700,8.5732197265625,-0.5404559534668922,-0.10723200196772813,-0.19668109448552132
1761585616653193700,8.58319384765625,-0.057978433977067464,-0.3100035222828388,0.28198972619771956
1761585616663167700,8.593167724609375,0.4805561960384249,-0.5139402869850397,0.536370145457983
1761585616673140700,8.603140625,0.09631400985121727,-0.6878752966552972,0.5053747032135725
1761585616683114800,8.61311474609375,-0.04846154083013534,-0.35613545112162825,-0.4321002081662416
1761585616693088800,8.6230888671875,-0.2632154676228762,0.3058651073038578,-2.123485023123026
1761585616703061800,8.633061767578125,-0.23133242888897657,-0.4569853508368134,-2.830954662564397
1761585616713035800,8.643035888671875,-0.2200041024059057,-0.9027402826070785,-3.6811271380662918
1761585616723009500,8.653009521484375,-0.5661787160053849,-1.1198904568865895,-2.8348101689487692
1761585616732983600,8.662983642578125,-0.6414774103567004,-0.38908699586987494,-1.1929372806578873
1761585616742956500,8.67295654296875,-0.45267304059565067,0.5720467312559485,-0.17427987758517263
1761585616752930600,8.6829306640625,-0.2952703557923436,1.1035384570226072,0.45247196506559845
1761585616762904600,8.692904541015626,0.18232582139670847,1.049841645887494,0.6426508380502463
1761585616772877600,8.702877685546875,0.7477785612151027,0.7034367306634783,0.9483575399219989
1761585616782851600,8.7128515625,0.729193103210628,0.06911942119449377,1.9599439816951751
1761585616792825600,8.72282568359375,0.8116647579312324,-0.3197793586269021,2.837821041202545
1761585616802799600,8.732799560546875,1.553182505185902,-0.6823121095702052,3.585935410243273
1761585616812772900,8.74277294921875,1.4700786900416016,-1.5510428628087043,3.8340509238898752
1761585616822747000,8.752746826171874,1.4995508682414889,-2.104358882370591,3.2263106557011603
1761585616832720600,8.762720703125,1.50744688218832,-1.92550687456429,2.363527704951167
1761585616842694700,8.772694580078126,1.503213482402265,-0.8587748841524123,1.36785136449337
1761585616852668000,8.78266796875,1.7949840133801103,0.4783382277280092,-0.3693547059178352
1761585616862642000,8.792641845703125,1.5547452244579791,1.1211007094591856,-1.888974840980768
1761585616872616000,8.802615966796875,0.969359411418438,1.0006091206848622,-3.0576620620012283
1761585616882588700,8.812588623046874,-0.36011224579811096,0.6190753166735172,-2.999576368257403
1761585616892562700,8.822562744140624,-0.8201058385401964,-0.23911153845787048,-1.6530980466604233
1761585616902536700,8.83253662109375,0.10987725577950477,-1.4297241755604744,-0.7538251479029655
1761585616912510700,8.8425107421875,0.7386985981807113,-2.097915697580576,-0.15608838733434677
1761585616922483700,8.852483642578125,0.5883078379660844,-1.9270628718346356,0.22626666993200778
1761585616932457700,8.862457763671875,0.5805258057877422,-1.335728379523754,0.09719137720763683
1761585616942431700,8.872431640625,0.49192017835676666,-0.6218938812255859,0.06045651452839374
1761585616952405800,8.88240576171875,-0.4538830009073019,0.1733911120519042,0.44944414167702196
1761585616962378800,8.892378662109374,-1.7316534047201275,0.6868550136968493,0.47439796566963194
1761585616972352800,8.902352783203124,-1.561908832477033,0.8001406166151166,0.07382862179875374
1761585616982326800,8.912326904296876,-0.9285176979422569,0.7349164492934942,0.11802607544362545
1761585616992299800,8.9222998046875,-0.5597980750575662,0.21029256346970795,0.029048984351754188
1761585617002273800,8.932273681640625,-0.7685016157701611,-0.396362247569859,-0.9139367994040251
1761585617012247800,8.942247802734375,-0.8538058635681867,-0.48014118549674745,-1.773911706995964
1761585617022221800,8.952221923828125,-0.9688359720662235,0.148831255812943,-1.4649164849728344
1761585617032194600,8.962194580078124,-1.2829209184437989,1.1151163743525743,-0.45021454152762885
1761585617042168600,8.97216845703125,-0.9883978738874196,1.8677932290032504,0.45886312740743157
1761585617052142600,8.982142578125,0.19609335772544145,2.050027572724223,1.2432219452619553
1761585617062116600,8.99211669921875,0.6489984535112977,1.3830696841523051,1.554087052810192
1761585617072089600,9.002089599609375,0.5105500600248575,0.1363403152912855,1.09080435539484
1761585617082063600,9.012063720703125,0.4794838906317949,-1.2084525374367832,0.4673287579357624
1761585617092037600,9.02203759765625,-0.0574041412204504,-1.6857611298561095,-0.00993628760278225
1761585617102010600,9.0320107421875,-0.09522007713466882,-1.761552283899486,-0.4300187257170677
1761585617111984600,9.041984619140624,0.4831143560886383,-1.614552335166931,-0.6021902328461408
1761585617121958700,9.051958740234374,0.8619806944563985,-1.3364067171767353,-0.6505582501739263
1761585617131932700,9.0619326171875,0.5361477348789573,-1.077570487551391,-0.6331371597737073
1761585617141905700,9.07190576171875,0.01079933417290449,-0.14172376189529895,-0.2530839497089386
1761585617151879700,9.081879638671875,0.01988075851202011,0.46992228156030175,-0.37421266734302044
1761585617161853700,9.091853759765625,0.05390402414500713,0.7467176539853215,-1.1149234821289777
1761585617171826700,9.10182666015625,-0.04509440248459577,1.0035942739754915,-1.0003227049589156
1761585617181800700,9.11180078125,0.7525802624084055,1.2101108260378242,-0.20620412511229513
1761585617191774700,9.121774658203124,1.4684874753274022,0.9009192046597599,-0.18421324257850646
1761585617201748700,9.131748779296874,1.316676619181782,0.07808861733078956,-0.42570787678062916
1761585617211721700,9.1417216796875,0.7817793227553367,-0.3019644466035068,-0.11699439430832863
1761585617221695700,9.15169580078125,0.26512247028797864,0.002114946327358484,0.6448959866285324
1761585617231669800,9.161669677734375,0.4410848941326141,0.07409896317273378,1.0733990470856427
1761585617241643800,9.171643798828125,0.6330364758782089,-0.09064268621653318,1.3552899890840053
1761585617251616800,9.18161669921875,1.2121890936166047,-0.1894070118293166,1.1359762070298194
1761585617261590800,9.1915908203125,1.5578617490433155,-0.31073709725439547,0.23211364239454269
1761585617271564800,9.201564697265624,0.5750039736263454,-0.07966887225955724,-0.07053659451603889
1761585617281537800,9.211537841796876,-0.6385130075931549,0.47623694459982213,0.261578221809864
1761585617291511800,9.22151171875,-0.4426876531541347,0.6500242163624614,0.5392722966402769
1761585617301485800,9.23148583984375,-0.034160189885646106,0.5597557702858,0.8883341561138629
1761585617311459800,9.2414599609375,0.18336729327365756,0.4728595040559768,1.391501120150089
1761585617321432600,9.2514326171875,0.29974983929395677,0.2628497030504048,1.5451210715442896
1761585617331406600,9.261406494140624,0.6010356559835374,-0.05389058014154434,1.1932359713435172
1761585617341380600,9.271380615234374,0.43174262690022586,-0.14256291613318026,0.8207283543527126
1761585617351354600,9.281354736328124,-0.12226955823227763,-0.0053461468009278175,0.5317676200985908
1761585617361327600,9.29132763671875,-0.3688118312127888,0.0904935600694269,0.13499123876988886
1761585617371301600,9.301301513671875,-0.8681808642707765,0.3576007013686001,-0.14908406153023243
1761585617381275600,9.311275634765625,-1.4322469720363615,0.6990443409234285,-0.23139117333889006
1761585617391248600,9.32124853515625,-0.7834286973975598,0.7969615481875837,-0.20061901845633984
1761585617401222700,9.33122265625,0.12084595516994595,0.6745146606270224,-0.012225275322794913
1761585617411196700,9.34119677734375,0.5603443107634782,0.3531498594395816,0.013897592449188232
1761585617421170700,9.351170654296874,0.20859730385914443,-0.20303068270795047,-0.16846680739223957
1761585617431143700,9.361143798828126,-0.23938275661468505,-0.5991319412540644,-0.12990005311071873
1761585617441117700,9.37111767578125,0.16528364731147885,-0.6972160295177251,0.43345980608165263
1761585617451091700,9.381091796875,0.6752016930431127,-0.6317023777302354,0.7340268069773912
1761585617461064700,9.391064697265625,0.7986347420968115,-0.44822358690612013,0.48457566081285475
1761585617471038700,9.401038818359375,0.6998254082985222,-0.3070551208060235,0.23630758695304394
1761585617481012700,9.4110126953125,0.5514736065655946,-0.1481204771950841,0.10376958655416965
1761585617490986500,9.420986572265624,0.4367845665901899,-0.012754706024378537,-0.02982172228991985
1761585617500959700,9.430959716796876,0.3850524796567857,0.025121033785678443,-0.1080588081806898
1761585617510933800,9.440933837890626,0.3004800532646477,0.07018317796848714,-0.32960955550670623
1761585617520907500,9.450907470703125,0.15780176712349056,0.15479257537014782,-0.5095990429103374
1761585617530881300,9.46088134765625,0.06314531522095203,0.25368483821153637,-0.443459222048521
1761585617540854300,9.470854248046875,-0.09360635832771658,0.22953319744728504,-0.37842122494876385
1761585617550828300,9.480828369140625,-0.19740458645448086,0.12172427237443625,-0.41293665801286694
1761585617560802300,9.49080224609375,-0.4712689469289034,0.19534728859849274,-0.4922726450562477
1761585617570775300,9.500775390625,-0.7251210314661264,0.39531573419161137,-0.4982061267584562
1761585617580749300,9.510749267578126,-0.41416064684987064,0.49548663866668935,-0.29422376934885974
1761585617590723300,9.520723388671875,-0.015741759011149405,0.3741572838939726,0.0840735369592905
1761585617600697300,9.530697265625,0.0687017803043127,0.24408874234855174,0.24928455742597577
1761585617610670300,9.54067041015625,0.15703998897075652,0.2382145896181464,0.2721592370569706
1761585617620644400,9.550644287109375,0.8706254078786819,0.6479787550747395,0.1734323208451271
1761585617630618400,9.560618408203124,0.8820775068718939,0.9858940743729472,-0.21688217099308965
1761585617640592400,9.57059228515625,0.19975516816861927,0.8373287760198116,-0.5163835884839296
1761585617650565400,9.5805654296875,-0.5674936710614711,0.5827054879143834,-0.4122153580009937
1761585617660539400,9.590539306640625,-0.822544536929205,0.4242345893576741,-0.005975567278265953
1761585617670513400,9.600513427734375,-0.6038098699372262,0.21016294574066996,0.17256255227327347
1761585617680486400,9.610486328125,-0.2007633953630924,-0.07666530652940273,-0.1386059221357107
1761585617690460400,9.62046044921875,0.2672304754178971,-0.10610723572149872,-0.4039414506524801
1761585617700434400,9.630434326171875,0.32437866911590096,-0.06741247114613652,-0.4353811295330524
1761585617710408200,9.640408203125,0.209359958794713,-0.21038506405875085,-0.36801439722478385
1761585617720381200,9.650381103515626,0.5240046579468995,-0.2650492589212954,-0.21306991922855376
1761585617730355200,9.660355224609376,1.1953928571164607,-0.19391060685887931,0.19562603247463703
1761585617740329200,9.6703291015625,1.2956687563359737,-0.28467312006279827,0.2553542327284813
1761585617750303200,9.68030322265625,0.9613771804928779,-0.24724735250994562,-0.24392682978510855
1761585617760276200,9.690276123046875,0.5928676932275295,-0.22444091580957173,-0.6588941168427467
1761585617770250200,9.700250244140625,0.36738778975903985,-0.32694676603823897,-0.7033785707354545
1761585617780224300,9.710224365234374,0.330551804792881,-0.32621070684865117,-0.5854325747907161
1761585617790197200,9.720197265625,-0.13365558798564597,-0.2753431277900934,-0.1867471449702978
1761585617800171300,9.730171142578126,-0.7267956866800784,-0.24222411752045153,0.5073544788539409
1761585617810145300,9.740145263671875,-0.6873860518336296,0.029236323617398738,0.6164513979107141
1761585617820119300,9.750119384765625,-0.7657891419410705,0.4911708212941885,0.08659457986950873
1761585617830092500,9.760092529296875,-0.8062485781013965,0.6533110560134053,-0.3087543990045786
1761585617840066600,9.770066650390625,-1.0067653782922774,0.5576528797224164,-0.24573534051179885
1761585617850040300,9.780040283203125,-0.6244166777014732,0.665613195964694,-0.029482115072011945
1761585617860013300,9.790013427734374,-0.17555289319567383,0.6726707132607698,0.19337386963367462
1761585617869987300,9.7999873046875,-0.5091922156751155,0.5076037774398923,0.4117144227415323
1761585617879961300,9.80996142578125,-0.6852384453456849,0.5407485066726804,0.5564122320115565
1761585617889935400,9.819935302734375,-0.35889994739890096,0.6733277158647776,0.44403205350041386
1761585617899908400,9.829908447265625,-0.14814349274449048,0.5553247290357947,0.14724281757771968
1761585617909882400,9.83988232421875,-0.1693115145880729,0.341008901399374,0.025397476106882092
1761585617919856400,9.8498564453125,-0.006192497964575886,0.36691987998634573,0.2730114699721336
1761585617929830400,9.859830322265625,0.3328033100467175,0.33522330373525616,0.7398767020493745
1761585617939803400,9.869803466796874,0.037838366941735146,0.418470034481585,0.8237889109671115
1761585617949777400,9.87977734375,-0.38810507216043766,0.718389092862606,0.6758510968625545
1761585617959751400,9.88975146484375,-0.42371180759258564,0.8889686546251178,0.7194061609506607
1761585617969724400,9.899724365234375,-0.1949029788970947,0.7522758726343513,0.9477613275945186
1761585617979698400,9.909698486328125,0.18743162010312078,0.49897477304339405,0.9685568628638982
1761585617989672400,9.91967236328125,0.34033794333525,0.3315463687881827,0.8196405591160059
1761585617999646500,9.929646484375,0.3083434801161289,0.20768793392926455,0.7387900758564472
1761585618009619200,9.939619140625,0.16898644735217094,0.12282500015795231,0.8690005100905894
1761585618019593200,9.94959326171875,0.2804769104819745,0.046503684760630125,0.8522633103013039
1761585618029567200,9.959567138671876,0.40392559549622237,-0.01564794324785471,0.5480453856825829
1761585618039541200,9.969541259765625,0.5152349664380773,-0.17313363015949726,0.17839841881990431
1761585618049514200,9.97951416015625,0.6410346350252628,-0.468506277282536,0.022445640563964843
1761585618059488300,9.98948828125,0.8527670951049774,-0.7165767827436328,-0.04344868110418319
1761585618069462300,9.999462158203125,1.1501274819791316,-0.8385399053752421,-0.32557986159920693
1761585618079435300,10.009435302734374,1.136312891638279,-0.7062617249563335,-0.38643385101258754
1761585618089409300,10.0194091796875,1.1448457421839238,-0.801816440872848,-0.3662807052999735
1761585618099383300,10.02938330078125,0.8880489094316959,-1.004745782098174,-0.5033563491284847
1761585618109357300,10.039357421875,0.5878524588814005,-0.8822282404541969,-0.7838456076353788
1761585618119330300,10.049330322265625,0.5802969289353117,-0.5906213756054639,-1.1164636973083018
1761585618129304300,10.05930419921875,0.722919137507677,-0.12272270882725715,-1.1699269919484854
1761585618139278300,10.0692783203125,0.698073450064659,0.5865092641115188,-0.9679238256573677
1761585618149252400,10.07925244140625,0.38692894105315206,1.0750070668041705,-0.5322095186471939
1761585618159225300,10.089225341796874,-0.1264893678843975,1.3422814544290302,-0.02311199551820755
1761585618169199000,10.09919921875,-0.5854489414036274,1.2763549840569495,0.2968675618559122
1761585618179173000,10.109173095703126,-0.6317115108847617,0.8180828082799911,0.38783553450405595
1761585618189146400,10.119146484375,0.10338325411770492,0.031926585614681244,0.7414227624475955
1761585618199120400,10.129120361328125,0.8651847511947155,-0.2918617163926363,0.9319313057780265
1761585618209094400,10.139094482421875,0.47652328726053234,-0.12521920181810856,0.6705161655753851
1761585618219068400,10.149068359375,-0.45572249129414555,0.1782604716539383,0.42960137708783147
1761585618229041400,10.15904150390625,-1.121777001285553,0.39645898594260215,0.4302338297724724
1761585618239015400,10.169015380859374,-1.2206851192831993,0.3307745076328516,0.2963970217347145
1761585618248989400,10.178989501953126,-0.924276407110691,-0.00034662148058414456,0.05251636917889118
1761585618258962400,10.18896240234375,-0.5098480492353439,-0.2855073789298534,-0.1977922705978155
1761585618268936400,10.1989365234375,0.06873392900824546,-0.5125497094094753,-0.5497118575900792
1761585618278910500,10.208910400390625,0.6659118866503239,-0.55821489751935,-0.8960469224482774
1761585618288884500,10.218884521484375,1.1465116295695303,-0.46400165933966636,-1.0293056383371353
1761585618298857200,10.228857177734374,1.1370692629635333,-0.280174201208353,-0.8497317459970712
1761585618308831200,10.238831298828124,0.7366448805212974,-0.07490881825089454,-0.5755623381614685
1761585618318805200,10.24880517578125,0.353543352269195,0.16619301724135874,-0.30250293739438056
1761585618328779300,10.258779296875,0.6082288919558748,0.2883148375660181,0.12033435238599777
1761585618338752300,10.268752197265625,0.8622387608706951,-0.035680969712138175,0.6353197645097971
1761585618348726300,10.278726318359375,0.6393862832963466,-0.178124862575531,0.8020166396200656
1761585618358700300,10.2887001953125,0.17996608826173469,-0.008646247792243957,0.7882365360707044
1761585618368673300,10.29867333984375,-0.06883563581705093,0.26759879727363584,0.8756096990972757
1761585618378647300,10.308647216796874,-0.2873345760907046,0.396962843811512,0.8492518535256385
1761585618388621300,10.318621337890624,-0.3269277690768242,0.3540963465094566,0.5408493366986513
1761585618398595300,10.32859521484375,0.0494809652720578,0.2635843009352684,0.1397954241812229
1761585618408568300,10.338568359375,0.45506081251502034,0.15557342354953288,-0.1961409962594509
1761585618418542300,10.348542236328125,0.6631611266374587,0.11753449253439903,-0.1846732613056898
1761585618428516400,10.358516357421875,0.667607000130415,-0.012402969977259636,0.21956746455430984
1761585618438490400,10.368490478515625,0.19935822300659492,-0.0823918674826622,0.640873891505599
1761585618448463400,10.37846337890625,-0.04879824370490387,-0.143495447742939,1.1996487609952688
1761585618458437400,10.388437255859374,-0.07400281845503487,0.03147708828151226,1.2052309450417755
1761585618468411400,10.398411376953124,-0.36910920672416686,0.20167174237966537,0.4682593167841434
1761585618478384400,10.40838427734375,-0.2616460263490677,0.3091068657040596,-0.37823242437839505
1761585618488358100,10.418358154296875,0.3663233753979206,0.0443634578615427,-0.9509428802400827
1761585618498332200,10.428332275390625,0.668214902895689,-0.38335985039472575,-1.177479014763236
1761585618508306200,10.43830615234375,0.8600783679664135,-0.5651940888822078,-1.3818857350647449
1761585618518279700,10.44827978515625,0.8428197746515274,-0.5388105243474245,-1.4113830477058886
1761585618528253400,10.45825341796875,0.24994389811754225,-0.38366847795248027,-0.8439771279931068
1761585618538227500,10.4682275390625,-0.7106722348749637,-0.14422493106126785,0.13524433674812317
1761585618548200700,10.47820068359375,-1.0585855819005519,0.04895721539258956,0.7126613628655671
1761585618558174700,10.4881748046875,-0.6928595148086547,0.15397008000612258,0.7938479462116956
1761585618568148700,10.498148681640625,-0.10800441111233085,0.0725578712105751,0.7095441076278686
1761585618578122500,10.50812255859375,0.1207949921676889,0.012103694769740103,0.23444003951549527
1761585618588095500,10.518095458984375,0.22051789714694023,0.0761000738620758,-0.13039105149805544
1761585618598069500,10.528069580078125,0.21389524587048217,-0.06313070217370986,-0.36634032653272147
1761585618608043500,10.53804345703125,-0.08752163158655166,-0.016639584633707998,-0.7397948689848184
1761585618618017500,10.548017578125,-0.06316581001970917,0.23773615845143795,-0.9693979898631572
1761585618627990500,10.557990478515626,0.15250640066172927,-0.0003372691303491592,-0.823155873760581
1761585618637964500,10.567964599609375,0.34828502988219256,-0.2904705542951822,-0.6760194391667842
1761585618647938600,10.5779384765625,0.4446867180168628,-0.2851508205771446,-0.6465817477583885
1761585618657911600,10.58791162109375,0.3277332402408123,-0.09960019191503525,-0.344129079246521
1761585618667885600,10.597885498046875,-0.2757610974738374,0.1230342589944601,0.42223932388722896
1761585618677859600,10.607859619140624,-0.5869347960472107,0.203813430583477,0.8371049041360616
1761585618687833600,10.61783349609375,-0.3036170361161232,0.21322189491987228,0.9306289910078048
1761585618697806600,10.627806640625,0.0037830256700515743,0.13142974689602852,0.9765998840659856
1761585618707780600,10.637780517578125,0.24365791318323463,-0.006830722802877426,0.8262351350754499
1761585618717754600,10.647754638671875,0.492311223500967,-0.05151566770374775,0.6210697053611278
1761585618727728600,10.657728759765625,0.642761312687397,-0.0040378772139549254,0.5483586894154548
1761585618737701400,10.667701416015625,0.6323673444449901,0.020247838258743284,0.2982774286538362
1761585618747675400,10.67767529296875,0.7146060671925545,0.09014145869612693,0.10388707545399666
1761585618757649400,10.6876494140625,0.7850368632465601,0.14471242231726644,0.1920668786883354
1761585618767622400,10.697622314453126,0.7090133617520332,0.030638883891701697,0.3244260153889656
1761585618777596400,10.707596435546876,0.6179056883722543,-0.148514152687788,0.35561434985697266
1761585618787570400,10.7175703125,0.586434445309639,-0.2053828718572855,0.336460152053833
1761585618797544400,10.72754443359375,0.6703437316179275,-0.22740064239799976,0.2915671173602342
1761585618807517400,10.737517333984375,0.6956850936233997,-0.2106236951202154,0.2831114237040281
1761585618817491500,10.747491455078125,0.5112310280263423,-0.049368134281039235,0.2280132213383913
1761585618827465500,10.757465576171874,0.41450317667722697,0.1428448748797178,0.05484451986551284
1761585618837439500,10.767439453125,0.5868553010702133,0.14706453840136527,-0.07687924154102801
1761585618847412500,10.77741259765625,0.5682827025473117,-0.04463993671536445,-0.04708265369236469
1761585618857386500,10.787386474609375,0.33038580057621,-0.08596504979431628,0.08634206641316414
1761585618867360500,10.797360595703125,-0.05285129108852706,0.08439677756428718,0.25685996111631393
1761585618877333500,10.80733349609375,-0.5362801290869712,0.27881226520538327,0.42480829759240146
1761585618887307500,10.8173076171875,-0.7419920867681503,0.3142506583333015,0.4063993651986122
1761585618897281500,10.827281494140625,-0.5820294883489608,0.12367781759500503,0.128597738340497
1761585618907255300,10.83725537109375,-0.05766776515927631,-0.12054653383195399,-0.19518997914493083
1761585618917228500,10.847228515625,0.4314157330334186,-0.21413725619912147,-0.3830588216215372
1761585618927202600,10.85720263671875,0.5753484031498431,-0.3076841394245624,-0.43092356560230255
1761585618937176600,10.867176513671875,0.47655952761769294,-0.26280630230009555,-0.4953729491591453
1761585618947149600,10.877149658203125,0.37296120597720145,-0.05548223324716091,-0.6124801561921834
1761585618957123600,10.88712353515625,0.22054829228520392,0.028962475112080572,-0.6171867264479398
1761585618967097600,10.89709765625,0.10445170533312484,0.030407997745275497,-0.5744564227461815
1761585618977071600,10.907071533203125,0.19515664313090963,0.002593523624539375,-0.40827918759584425
1761585618987044600,10.917044677734374,0.05496023693336174,-0.05103109905719757,-0.11934943300187587
1761585618997018600,10.9270185546875,-0.22646482285261152,-0.21859423560798166,0.3274099996358156
1761585619006992600,10.93699267578125,-0.48605216310620303,-0.15669395201206207,0.9431979652017355
1761585619016966700,10.946966552734375,-1.2406909654796123,0.3957137205332517,0.9748527481377124
1761585619026939400,10.956939453125,-1.0553343980848788,0.3669295245975256,0.867235253983736
1761585619036913400,10.966913330078125,-0.1599123295366764,0.08961597351729869,0.7930915748864412
1761585619046887400,10.976887451171875,0.6229553729772568,-0.17421850278675555,0.4817980127930641
1761585619056860400,10.9868603515625,1.0655389812350273,-0.08421557577848433,0.14107435807585716
1761585619066834400,10.99683447265625,1.0505319662392139,-0.03903086466193199,-0.12624211512506006
1761585619076808400,11.006808349609376,0.8282441368103027,-0.13491525092422962,-0.22086393410563468
1761585619086782500,11.016782470703125,0.4566530501425266,-0.035542438024282454,-0.25277590667307376
1761585619096755500,11.02675537109375,0.23120533191058784,0.011413958939909935,-0.3915408187627792
1761585619106729500,11.0367294921875,0.4350409377932548,-0.08070844444036483,-0.5194634343206882
1761585619116703500,11.046703369140625,0.6167196934580803,-0.08074410027563571,-0.5922983689069747
1761585619126677500,11.056677490234375,0.557710966585204,-0.1443184545636177,-0.6988473570466042
1761585619136650500,11.066650390625,0.43035657936930655,-0.17808453056514262,-0.7015449255675077
1761585619146624500,11.07662451171875,0.20592826731298117,-0.1325233873516321,-0.6203074888169765
1761585619156598500,11.0865986328125,0.025802001787163315,-0.0778209063053131,-0.5134744230389595
1761585619166571300,11.0965712890625,-0.24880641852021215,0.15510580603778362,-0.496527964413166
1761585619176545300,11.106545166015625,-0.31048166118860243,0.17902911793887613,-0.45822015332877636
1761585619186519300,11.116519287109375,-0.01701777029633522,0.12587737346589564,-0.3335071474671364
1761585619196493300,11.126493408203125,-0.46681675329301503,0.009890110373497008,0.37124095805585383
1761585619206466600,11.136466552734374,-1.5380395888507365,0.16636837380826472,1.41943717482388
1761585619216440300,11.1464404296875,-1.4717735112607477,0.31444179699122904,1.4713468102812766
1761585619226414300,11.156414306640626,-0.9417501044809817,0.3666197279959917,1.1472761842012404
1761585619236387600,11.1663876953125,-0.37414080768320707,0.27728374046385285,0.6260889948278665
1761585619246361600,11.176361572265625,0.229110368925333,0.005358896684646606,0.22670330778360365
1761585619256335600,11.186335693359375,0.7457306887745857,-0.19519056366682053,0.21134499513208865
1761585619266309400,11.196309326171875,0.9371171839833259,-0.2782926252454519,0.28125848931372166
1761585619276282600,11.20628271484375,0.8441361179471015,-0.22358722158968447,0.2844762823164463
1761585619286256600,11.216256591796874,0.6722738228976726,0.011559504890441894,0.1717114884018898
1761585619296230700,11.226230712890626,0.46730420801639555,0.21858780586719512,0.1452630419373512
1761585619306204700,11.23620458984375,0.28247487936615945,0.2627601250708103,0.19708850624263285
1761585619316177700,11.246177734375,0.2400245616495609,0.1917325321674347,0.026244448325037955
1761585619326151700,11.256151611328125,0.2706266206622124,0.0643792409300804,-0.17776479709148407
1761585619336125700,11.266125732421875,0.3382242391169071,-0.1533119083583355,-0.24055121587216852
1761585619346098400,11.276098388671874,0.40152503716051574,-0.2810322793424129,-0.2967623479157686
1761585619356072400,11.286072509765624,0.3807750945985317,-0.1984241387605667,-0.3726215987592935
1761585619366046500,11.29604638671875,0.2785369553953409,-0.015183540606498718,-0.4593412663131952
1761585619376020500,11.3060205078125,0.17291209636330604,0.07495499548017978,-0.4758458263903856
1761585619385993500,11.315993408203125,0.054956752634909935,0.04280219989418983,-0.465507387727499
1761585619395967500,11.325967529296875,0.0986129344433546,-0.0868009160965681,-0.5234545497834682
1761585619405941500,11.33594140625,0.193404849293828,-0.2189151381254196,-0.4031336414009332
1761585619415915500,11.34591552734375,0.1791091974377632,-0.1619166550964117,-0.2020364840388298
1761585619425888500,11.355888427734374,0.1310650052368641,-0.12388707643151282,-0.16747428922355173
1761585619435862500,11.365862548828124,0.11466741266548633,-0.19155542203485965,-0.11233692389130592
1761585619445836500,11.37583642578125,0.06037935763895511,-0.14644260711073875,0.06097381640076637
1761585619455809500,11.3858095703125,-0.06500994004905224,-0.06500117222070693,0.23286007684767246
1761585619465783600,11.395783447265625,-0.0026689269483089447,-0.07705810523927212,0.340372941583395
1761585619475757600,11.405757568359375,0.2173860288619995,-0.1393032567501068,0.2510322778761387
1761585619485731600,11.415731689453125,0.5967565173596143,-0.1963806502342224,0.0971796867698431
1761585619495704300,11.425704345703124,0.8861562275528907,-0.29564532658457754,0.07556348276734352
1761585619505678300,11.43567822265625,0.9890817644983529,-0.32649873000979424,0.10494798268377781
1761585619515652400,11.44565234375,0.7729343375205994,-0.18906886591613292,0.17026362768113612
1761585619525629700,11.455629638671875,0.21590192778408526,0.05332651651799678,0.2901093197673559
1761585619535603700,11.465603759765624,-0.21519407177567482,0.16708265955746174,0.18682780899107454
1761585619545577700,11.47557763671875,-0.3699421504169702,0.13702771303355693,0.08392273031175136
1761585619555551700,11.4855517578125,-0.2226718603104353,0.15481588318049908,-0.014385083705186843
1761585619565524700,11.495524658203125,0.05741350270383991,0.054361704784631724,-0.0260813667178154
1761585619575498800,11.505498779296875,0.15524492224752903,-0.02022153477370739,-0.02689385214447975
1761585619585472800,11.51547265625,0.1208516907909885,-0.04379413354098797,-0.09068915570676327
1761585619595446800,11.52544677734375,0.14873508369578048,-0.05060205999016761,-0.10429098007977008
1761585619605419800,11.535419677734374,0.2746674387519248,-0.16324351978600024,-0.06788578774631022
1761585619615393800,11.545393798828124,0.41380821668300777,-0.32270226033627986,-0.17679507527649402
1761585619625367800,11.555367919921874,0.5009522105962038,-0.2840484122931957,-0.2554454181432724
1761585619635341000,11.565341064453126,0.5387210924983025,-0.0927349823206663,-0.12491291234791278
1761585619645314800,11.575314697265625,0.568321280992031,0.0035761049211025238,-0.02587561501264572
1761585619655288800,11.585288818359375,0.7389291920661926,0.13011691073179243,-0.019928104785084725
1761585619665262800,11.595262939453125,0.7327841134399176,0.12177286075651644,-0.09684767833650111
1761585619675236000,11.605236083984375,0.4400976366609335,-0.20788696363270281,-0.01470890883207321
1761585619685209900,11.6152099609375,0.1268664027695544,-0.33415245963335033,0.06004384207427501
1761585619695184000,11.625183837890624,0.18386020962344482,0.0231751238822937,0.1966594671756029
1761585619705156900,11.635156982421876,0.3062590933238156,0.05643149679601192,0.13039455862939356
1761585619715131000,11.645130859375,0.18992403970705343,-0.1385626675158739,-0.032174422895908356
1761585619725105000,11.65510498046875,0.21683014854490756,-0.033142391145229336,0.01992693574130535
1761585619735079000,11.665078857421875,0.10918810447156428,0.142919109159708,0.022039982372522353
1761585619745052000,11.675052001953125,-0.2587999892681837,0.15878887846469877,0.04876432316899299
1761585619755026000,11.68502587890625,-0.3619558278381824,-0.035737668335437775,0.18094518069326876
1761585619765000000,11.695,-0.11741291198134422,-0.08269348077774047,0.30890812826156616
1761585619774974000,11.704973876953124,0.27519405644191425,-0.08697861075103283,0.4048907142013311
1761585619784947000,11.714947021484376,0.3388309728384018,-0.16473346608281134,0.5450929656177759
1761585619794921000,11.7249208984375,0.11044309123503043,-0.1280138009727001,0.46550972581505773
1761585619804895000,11.73489501953125,0.02491813162472099,0.05365092616677284,0.23384090457856654
1761585619814868000,11.744867919921875,-0.058593679798580704,0.033199089768528936,0.30212825886309147
1761585619824842000,11.754842041015625,-0.05243745872378349,-0.03841770119965076,0.27512334755957124
1761585619834816000,11.76481591796875,-0.07584989849328995,0.15278291604816913,-0.17211013233065603
1761585619844790000,11.7747900390625,-0.15942713983561843,0.24498715249300002,-0.47421910197138784
1761585619854762800,11.7847626953125,-0.10364859052300453,-0.019467501536011695,-0.5642746359497308
1761585619864736800,11.79473681640625,0.05609075706694275,-0.3962959043353796,-0.4125415212154388
1761585619874710800,11.804710693359375,0.19812953972816466,-0.3310661840558052,-0.22471593335866927
1761585619884683800,11.814683837890625,0.009178126179240643,0.0595610269933939,-0.09575169979333877
1761585619894657800,11.82465771484375,-0.3094610859692096,0.12070786187350749,0.03974748849868774
1761585619904631800,11.8346318359375,-0.47921786010675127,0.0017038813084363936,0.1412508836865425
1761585619914605800,11.844605712890624,-0.4771744446456432,0.051314007651805875,0.22796178341209888
1761585619924578800,11.854578857421876,-0.3369301441857591,0.11629530612826347,0.25030922429859637
1761585619934552800,11.864552734375,-0.11857263994310051,0.04258417322933673,0.2740449046730995
1761585619944526800,11.87452685546875,0.2583037301838398,-0.005942834052443504,0.3885632642567158
1761585619954500900,11.8845009765625,0.4855518123686313,0.02107318316698074,0.27120237472355363
1761585619964473900,11.894473876953125,0.4786953706026077,0.04297872550487518,-0.15010814388096333
1761585619974447900,11.90444775390625,0.3921440453529358,0.09000526509582996,-0.4107528842329979
1761585619984422000,11.914421875,0.4314146370548755,0.08729542161524295,-0.30554420478641986
1761585619994395000,11.924394775390626,0.47799620935730636,0.0771066205561161,-0.19594167429506779
1761585620004369000,11.934368896484376,0.2981529985565692,0.12558920417428016,0.048097968214750285
1761585620014343000,11.944343017578126,0.08144954513125122,0.19627485177218912,0.34468145243227477
1761585620024316700,11.954316650390625,0.04300429833754897,0.14401625674664972,0.33513270284235475
1761585620034290000,11.9642900390625,0.138552657578513,0.0716606301099062,0.16143091740608215
1761585620044264000,11.974263916015625,0.23584530320353805,-0.04471592456102371,-0.039377486142516134
1761585620054238000,11.984238037109375,0.4155915564358234,-0.1999409730643034,-0.14073650442361832
1761585620064212000,11.9942119140625,0.5711246479749679,-0.2820002475917339,-0.05514028794169425
1761585620074185000,12.00418505859375,0.39278234325647354,-0.34745442427694795,-0.06884732625484466
1761585620084159000,12.014158935546876,0.4250339230418205,-0.4586398400455713,-0.22787468965053556
1761585620094133000,12.024133056640625,0.4790986541738733,-0.45725510768890376,-0.2532534610569477
1761585620104106000,12.03410595703125,0.4264554072123021,-0.21275077027678488,-0.4760229365229606
1761585620114080000,12.044080078125,0.645010552918911,0.02847147672474384,-0.6309288360744715
1761585620124054000,12.054053955078125,0.6451320604067295,0.23415420831143854,-0.6660697075605392
1761585620134028000,12.064028076171875,0.2187935575723648,0.3481546815007925,-0.6898498115986585
1761585620144000800,12.074000732421876,-0.44243280161023135,0.3302969532489776,-0.34237785166502
1761585620153974800,12.083974853515626,-1.2028093439180403,0.2561760705053806,0.25904548846185205
1761585620163948800,12.09394873046875,-1.604862131279707,0.2402256371796131,0.6198474700897931
1761585620173921800,12.103921875,-1.2934781144239007,0.21471301026046274,0.7730909893870354
1761585620183895800,12.113895751953125,-0.7470996390402317,0.17296587237715721,0.5082984817057847
1761585620193869800,12.123869873046875,-0.3097122842513025,-0.06992693818509578,-0.018336451679468155
1761585620203843800,12.13384375,0.01674187596440315,-0.30902152550816536,-0.27395079664885996
1761585620213816800,12.14381689453125,0.1660907259106636,-0.2699585121423006,-0.2893085247784853
1761585620223790800,12.153790771484376,0.21693477796316146,-0.17392156566679476,-0.348110842359066
1761585620233764900,12.163764892578126,0.28487492624521255,-0.1553460445344448,-0.3674164313316345
1761585620243737900,12.17373779296875,0.24599596420936284,-0.02446165656149387,-0.1205722527951002
1761585620253712000,12.1837119140625,0.3394435517787933,0.0397100790977478,0.0712765992283821
1761585620263686000,12.193685791015625,0.4928641446759924,0.05640694687664508,0.23387129971683024
1761585620273660000,12.203659912109375,0.60530978963878,0.13969780902564524,0.36704759801924225
1761585620283632600,12.213632568359374,0.3739350194454193,0.3134036861151457,0.44736324374973774
1761585620293606700,12.223606689453124,0.13605450235353783,0.429928709346056,0.3297510098040104
1761585620303580700,12.23358056640625,0.18011691317558287,0.32620997619628905,0.1983282771706581
1761585620313554700,12.2435546875,0.25166473056077954,0.21846914792358874,0.26381694064736366
1761585620323528000,12.25352783203125,-0.05274434184902347,0.3702314887523651,0.48733752674162384
1761585620333501700,12.263501708984375,-0.429189837144874,0.5486760848015546,0.3194347829729318
1761585620343475700,12.273475830078125,-0.2926402630170807,0.1285556527644396,0.02688040814101696
1761585620353449000,12.283448974609374,0.02576112178750336,-0.41548108179867266,0.04936287358403205
1761585620363423000,12.293423095703124,0.6478811399191617,-0.8037497470229864,0.5101373875707388
1761585620373397000,12.30339697265625,1.5449340245395897,-1.0503735608071088,0.26275778698325153
1761585620383370800,12.313370849609376,1.4446464348822832,-0.7028039857178926,-0.3510907349526882
1761585620393344000,12.323343994140625,1.0447294905055313,-0.2969038022130728,-0.49194765088558196
1761585620403318000,12.333318115234375,0.807930320643261,-0.42461014467179775,-0.22325813576579093
1761585620413292000,12.3432919921875,0.806094848844409,-0.32774785328805445,-0.1826519846111536
1761585620423265000,12.35326513671875,0.5557775143045932,-0.05038111071586609,-0.34032033461332317
1761585620433239000,12.363239013671874,0.35628596550822256,0.016713818913698195,-0.6543892066389322
1761585620443213000,12.373213134765624,0.48628246473073955,-0.1405845287322998,-0.7052677454829216
1761585620453187000,12.38318701171875,0.6871241860270499,-0.32735563910007476,-0.45725160055756564
1761585620463159800,12.393159912109375,0.5912368771553039,-0.2156424000650644,-0.2532493694037199
1761585620473133800,12.4031337890625,0.1535030835488811,0.11951251460909842,0.036599838122725485
1761585620483107800,12.41310791015625,-0.15631635087132453,0.3675760058075189,0.021838322320580483
1761585620493081900,12.423081787109375,-0.19050036002397536,0.39630291859805583,-0.05393909545838833
1761585620503054800,12.433054931640624,-0.08968728518784046,0.28837796593010423,0.10904022043347358
