time,seconds_elapsed,z,y,x
1768580181351565000,0.12056494140625,0.1326362000763416,0.28453707259297367,0.15256218596957624
1768580181361538000,0.1305380859375,0.15294307504594326,0.3040162645667791,0.1574228325421922
1768580181371511300,0.14051123046875,0.08896306256651877,0.24530747048854826,0.1210475421566516
1768580181381485300,0.1504853515625,0.07126622396484017,0.16784721418917178,0.05381530468193814
1768580181391458300,0.160458251953125,0.04236147038936615,0.07529518721997737,0.029827713639289138
1768580181401431300,0.170431396484375,-0.12240458278879522,0.0538093315988779,0.09013950420105829
1768580181411405000,0.180405029296875,-0.2177379110395908,0.1892401308298111,0.10014860131172462
1768580181421378000,0.1903779296875,0.030692075383663177,0.2264139694482088,-0.04870400781650096
1768580181431351300,0.200351318359375,0.23378435208573936,0.1858878977924585,-0.15997763159153983
1768580181441325300,0.2103251953125,0.17708280617669223,0.04949497553110122,-0.1091662396996282
1768580181451298300,0.22029833984375,0.3261059312999248,-0.21600129650533198,-0.09739534794767386
1768580181461271300,0.230271240234375,0.7037580715723335,-0.21154899327158927,-0.1859220557903871
1768580181471245300,0.240245361328125,0.42098976221755147,-0.8329074524462222,-0.31849293554555624
1768580181481218000,0.250218017578125,0.6067009882688522,-0.41629648983478545,0.13936764548951758
1768580181491191000,0.26019091796875,0.856497440739721,-0.5432815322816371,0.07798552228249608
1768580181501165000,0.2701650390625,0.5725935514837504,-0.3910615108132362,0.37662747339978814
1768580181511138300,0.28013818359375,-0.061602177432179446,-0.12660861034989357,0.2888971492323093
1768580181521112300,0.2901123046875,-0.39853228508532046,-0.20664310105144976,0.05398152809431776
1768580181531085300,0.300085205078125,-0.3108434802383184,-0.21227672302424908,-0.02307313394569792
1768580181541058300,0.310058349609375,-0.1461398247718811,-0.2603881352424621,-0.0976423632449936
1768580181551032300,0.3200322265625,-0.022163316491246223,-0.3076981679499149,-0.20545599189242347
1768580181561005000,0.330005126953125,-0.029921821663528678,-0.18695698832869528,-0.20602193694580345
1768580181570978000,0.33997802734375,0.15845102481245993,-0.13173252923488615,-0.3007656652729958
1768580181580952000,0.3499521484375,0.322855843462795,-0.1755015283346176,-0.05786942064464092
1768580181590925300,0.35992529296875,0.847260971969366,-0.1959323219448328,0.5280407085299491
1768580181600898300,0.369898193359375,0.5233114880509674,-0.13921148681342602,0.6232163620010018
1768580181610872300,0.379872314453125,0.01610591614842415,-0.16350421654880046,0.655936216885224
1768580181620845300,0.38984521484375,-0.0933377705194056,-0.23779811777174473,0.5238533033100888
1768580181630818000,0.399818115234375,0.14422025488615034,-0.3512450487315655,0.23476368197929112
1768580181640792000,0.4097919921875,0.26297289103865623,-0.46015258269608017,0.019174327275715768
1768580181650764800,0.419764892578125,0.1760550705641508,-0.5343330866724252,-0.055561901754094284
1768580181660737800,0.42973779296875,0.1404037653379142,-0.332763635623455,-0.15984657082408665
1768580181670711800,0.4397119140625,0.2559288908112794,0.052386605319380754,-0.03089691377338022
1768580181680684800,0.449684814453125,0.7595389224398881,-0.2654337281942367,-0.0750646207339596
1768580181690657500,0.459657470703125,1.312832803235203,-0.42426878388822076,-0.28877028971593827
1768580181700631600,0.469631591796875,0.7982464734315872,-0.2492354575872421,-0.09489373125713318
1768580181710604500,0.4796044921875,0.5904710073493421,-0.12671908498704432,-0.04693397506983019
1768580181720577800,0.489577880859375,1.1658183875858783,0.07177870353162288,-0.17870399590404704
1768580181730551800,0.4995517578125,1.3563748617112636,0.312250424426794,-0.345006958059594
1768580181740524800,0.50952490234375,1.2490098810136316,0.34476211645305155,-0.3649232262764126
1768580181750497800,0.519497802734375,0.9359704981662332,0.22915128545761107,-0.3564611759446561
1768580181760471800,0.529471923828125,0.6408038219440728,0.10149521188139915,-0.29266415534932166
1768580181770444500,0.539444580078125,0.2872751192547381,-0.08091536518931389,-0.13050864999573678
1768580181780418600,0.54941845703125,-0.05005436297953129,-0.21649521750211714,-0.04375471484605223
1768580181790391800,0.559391845703125,-0.2049683727722615,-0.15904840618371963,-0.0019303104754537343
1768580181800364800,0.56936474609375,-0.07652034510076046,0.06736147161126137,-0.01515581234935671
1768580181810338800,0.5793388671875,-0.01039265306815505,0.10023147555589676,-0.1297486619412899
1768580181820311800,0.589311767578125,0.08039455618560314,-0.0831499923735857,-0.1167971547031775
1768580181830284500,0.599284423828125,0.2786957992188632,-0.30991818208694455,-0.10396362955523654
1768580181840258600,0.609258544921875,0.27811186185106634,-0.472433972120285,-0.20853185567380858
1768580181850231600,0.6192314453125,0.11399068244770169,-0.5009235690236091,-0.3323731019359082
1768580181860204800,0.629204833984375,-0.23172435081601142,-0.35139059468209743,-0.28166277753198515
1768580181870178800,0.6391787109375,-0.5964369300164282,-0.37588673803508277,-0.12041481547737494
1768580181880151800,0.64915185546875,-0.5956627307735383,-0.4745779984116554,-0.008395734496740625
1768580181890124800,0.659124755859375,-0.18967384607195853,-0.3533773845851421,-0.1287381697244942
1768580181900098800,0.669098876953125,0.25102292552590366,-0.24081074359118937,-0.34940205121338364
1768580181910071600,0.679071533203125,0.4156242896616459,-0.1317564946323633,-0.422670116519928
1768580181920044500,0.68904443359375,0.4709831887900829,-0.151899118950963,-0.3532608455333858
1768580181930018600,0.6990185546875,0.5951182486332952,-0.3389712580919266,-0.22370213493993504
1768580181939991800,0.70899169921875,0.47774157700911163,-0.4958756379842758,-0.18915740271611137
1768580181949965800,0.7189658203125,0.342151203302294,-0.4158095831006765,-0.15476378766708074
1768580181959938800,0.728938720703125,0.10945654614940285,-0.3525806812494993,-0.1236339327875059
1768580181969911800,0.738911865234375,-0.002275982107967138,-0.5011445182979106,-0.1425571074469015
1768580181979885800,0.7488857421875,0.005015782335400581,-0.5138683907926083,-0.20381229807231574
1768580181989858600,0.758858642578125,-0.0858072288841009,-0.44506665724515915,-0.23022784691425038
1768580181999831600,0.76883154296875,0.009452303478121756,-0.37193244745135307,-0.1550817493087612
1768580182009805600,0.7788056640625,0.20574410638511179,-0.29903847615420814,-0.08856893041608854
1768580182019778800,0.78877880859375,0.2739407136462629,-0.2528787825256586,-0.06638197732092813
1768580182029751800,0.798751708984375,0.19168233635015786,-0.1829600276470184,-0.0292809048279305
1768580182039725800,0.808725830078125,0.20116445044465361,-0.14972586656510828,-0.01939932253747247
1768580182049698600,0.818698486328125,0.3538842381287366,-0.13517244055569172,-0.05542701876147184
1768580182059671600,0.828671630859375,0.3555266715735197,-0.14303133736252785,-0.13071509582065044
1768580182069645600,0.8386455078125,0.2627472655892372,-0.19981588537991046,-0.19827486648298798
1768580182079618800,0.848618896484375,0.18824483618214724,-0.16303893712460993,-0.1882718885858543
1768580182089592600,0.858592529296875,0.12782163940146565,-0.09373509927392006,-0.1673953239695169
1768580182099565800,0.86856591796875,0.024042042909935116,-0.06576455780863762,-0.16747381429951638
1768580182109538800,0.878538818359375,0.01800678133368492,-0.005418517917394638,-0.07865599628943018
1768580182119512800,0.888512939453125,0.2016431008070707,0.03715162678658962,0.019095695381821133
1768580182129485600,0.898485595703125,0.2404645605020225,0.011233926197886466,-0.057672080574790015
1768580182139458600,0.90845849609375,0.1437216577142477,-0.018451017969846724,-0.12862020590063183
1768580182149432600,0.9184326171875,0.06681245942637323,-0.04098901299238205,-0.17907091125398875
1768580182159405800,0.92840576171875,-0.002419336101412773,-0.04733516714870929,-0.25179644891535863
1768580182169378800,0.93837890625,-0.01653568586781621,-0.07639818002581596,-0.2735029432835057
1768580182179352800,0.948352783203125,-0.04993351307883859,-0.09223346253931522,-0.25494035469796505
1768580182189325800,0.958325927734375,-0.026953473377227782,-0.044947979751229286,-0.16671134202703833
1768580182199298600,0.968298583984375,0.11433365066647529,0.03077858462333679,-0.12738374117454512
1768580182209272600,0.9782724609375,0.2599532509565353,0.09828677122890948,-0.10961237603193148
1768580182219245600,0.98824560546875,0.2292980735171586,0.10518705213665962,-0.05845774649318773
1768580182229219600,0.998219482421875,0.08987849691100418,0.043595980620384216,-0.02361601778389886
1768580182239192800,1.00819287109375,0.08167290555834769,0.05748305167555809,-0.03565906840758398
1768580182249165800,1.018165771484375,0.12084244803860783,0.1376128194451332,-0.06794791146339849
1768580182259139800,1.028139892578125,0.09331373205669223,0.06350012000799178,-0.01685139162032865
1768580182269112600,1.038112548828125,0.08430924541130662,-0.02742985871732235,-0.02080474148914218
1768580182279085600,1.04808544921875,-0.08495558049082756,0.05356090979576111,-0.18078118577059357
1768580182289059600,1.0580595703125,-0.24440489562563597,0.052293081817030906,-0.25306466048657894
1768580182299032600,1.068032470703125,-0.17608780378997324,-0.045476387539505954,-0.21062004185840486
1768580182309005800,1.078005859375,-0.07645429412722587,-0.034710663375258445,-0.19945717160273344
1768580182318979800,1.087979736328125,-0.07352693543843924,0.048694180542230604,-0.22949629950299857
1768580182328952800,1.097952880859375,-0.09586268588714301,0.09855331321060656,-0.23793727051410823
1768580182338925600,1.107925537109375,-0.13472761939764022,0.12091945879757404,-0.20638695259960366
1768580182348899600,1.117899658203125,-0.06356207932829856,0.11464870796501636,-0.1322015897850506
1768580182358872600,1.12787255859375,0.037011414598301054,0.06188216341733932,-0.07165149695537984
1768580182368846600,1.1378466796875,-0.02173946505598724,0.057304772499203675,-0.020860700326925143
1768580182378819600,1.147819580078125,-0.02044014596045017,0.06330255160927772,0.03191121451561339
1768580182388792800,1.157792724609375,-0.034849268128350375,0.08537292912006378,-0.038391890904959286
1768580182398766800,1.167766845703125,0.026771687069535255,-0.015410335099697112,-0.09254281161627732
1768580182408739800,1.17773974609375,0.04192424801588058,-0.1471241596341133,-0.1085153471759986
1768580182418712600,1.187712646484375,0.022757190731167793,-0.19304186120033262,-0.11195565122244878
1768580182428686600,1.1976865234375,-0.03782843006961047,-0.17586977712512014,-0.1330220667219255
1768580182438659600,1.20765966796875,-0.13217669280581176,-0.14554185887873172,-0.11353225288940592
1768580182448632800,1.2176328125,-0.16734737490825355,-0.15387129580676553,-0.014476342185214161
1768580182458606600,1.227606689453125,-0.14247772206775844,-0.1346452018111944,0.05835501220449805
1768580182468579800,1.237579833984375,-0.1812654256235808,-0.09977379491627215,0.07668255905830301
1768580182478553900,1.247553955078125,-0.19102577213756738,-0.12309797188043593,0.09762623409410007
1768580182488526800,1.25752685546875,-0.17019231601059437,-0.13241583532392978,0.08179381939112208
1768580182498499600,1.26749951171875,-0.0837380213946104,-0.17843290561139583,0.05633406430352479
1768580182508473600,1.2774736328125,0.05383921528048813,-0.222761876681447,0.016446852240315637
1768580182518446600,1.287446533203125,0.1157412524420768,-0.1670008264929056,-0.04106467661105562
1768580182528419800,1.297419921875,0.1254092444974929,-0.1445055015683174,-0.08584407202946022
1768580182538393900,1.307393798828125,0.08915179007165133,-0.1499000540882349,-0.08189580019456334
1768580182548366800,1.317366943359375,-0.01983399676084518,-0.12316577641963958,-0.07030870404429733
1768580182558339600,1.327339599609375,-0.06177227330207825,-0.08326689675152302,-0.11485820426354185
1768580182568313600,1.337313720703125,-0.03733341309428215,-0.06375555607378483,-0.15416868958445265
1768580182578286600,1.34728662109375,-0.1304055184148252,-0.03302490224540233,-0.18160642108097672
1768580182588259600,1.357259521484375,-0.09326631271839142,0.013075754672288893,-0.18710114603973924
1768580182598233600,1.367233642578125,-0.03867138369977474,0.03151917385756969,-0.1886522844718769
1768580182608206800,1.377206787109375,-0.06264730257093906,-0.02291851877272129,-0.18781663736533372
1768580182618180900,1.387180908203125,-0.018119009536504745,-0.10080956770479678,-0.17479471350582315
1768580182628153900,1.39715380859375,-0.03355148340277374,-0.051851767790317534,-0.14990721448138355
1768580182638126600,1.407126708984375,-0.03819609433822334,-0.07622691511213779,-0.13079698368413373
1768580182648100600,1.4171005859375,-0.00533617339618504,-0.14717442851662635,-0.10287594391638412
1768580182658073600,1.427073486328125,0.05332067129909992,-0.09990823495090007,-0.10147747529530897
1768580182668046600,1.437046630859375,0.07671199521534144,-0.097841950070858,-0.10935025449702515
1768580182678020600,1.4470205078125,0.022180779082700608,-0.12494038487672805,-0.14971479718182235
1768580182687993900,1.456993896484375,0.0021065438251942395,-0.17054712079763412,-0.14671449198783373
1768580182697966800,1.466966796875,0.028908699098229407,-0.1438221954792738,-0.10513711204770952
1768580182707940900,1.47694091796875,0.02734568756520748,-0.1605605643123388,-0.0590861212243326
1768580182717913600,1.48691357421875,0.18166764974892138,-0.15500059209764003,-0.04463701410591602
1768580182727887600,1.4968876953125,0.43497371777594085,-0.1105599773466587,-0.013798740892816568
1768580182737860600,1.506860595703125,0.4317180039156228,-0.04074176023304462,0.05400115067681763
1768580182747833900,1.516833740234375,0.2363094135839492,-0.0229921685308218,0.10488728373879566
1768580182757807600,1.5268076171875,0.009693784083798528,-0.04968026897013187,0.13460859612785278
1768580182767780900,1.53678076171875,-0.0636169513206929,-0.026256138762831685,0.17196612075008452
1768580182777753600,1.546753662109375,-0.048151159706711764,0.041699207088351245,0.1372714403952472
1768580182787727600,1.5567275390625,0.03559489886388183,0.027652561557292937,0.08047615178814158
1768580182797700600,1.56670068359375,0.1382527247838676,-0.028706454524397847,0.03167039606363978
1768580182807673600,1.576673583984375,0.22018954197540877,-0.01162497134208679,-0.009528348405996803
1768580182817647600,1.586647705078125,0.18564882833957672,0.014171148693561553,-0.02072745673554018
1768580182827620900,1.596620849609375,0.11217369615361093,-0.06355974124073982,-0.03347502063307911
1768580182837593900,1.60659375,0.1445959563307464,-0.05900047050118446,-0.07848433865010739
1768580182847568000,1.61656787109375,0.2855890658639371,-0.026988544690608976,-0.11147358506023883
1768580182857540600,1.62654052734375,0.3589648293286562,-0.060014031457901,-0.0872474725539796
1768580182867514600,1.6365146484375,0.4153039716660976,-0.018788287100195884,-0.015957796931604387
1768580182877487600,1.646487548828125,0.47749593168497084,0.09194587776958942,0.01651988779377425
1768580182887460600,1.656460693359375,0.34762525079920886,0.08661153100430966,-0.03460661847889423
1768580182897434600,1.6664345703125,0.16633520219102502,0.018559154519438743,-0.1185557984061539
1768580182907408000,1.676407958984375,0.09132920717597007,0.045668110719323154,-0.11254993645432404
1768580182917380900,1.686380859375,0.008507862234860658,0.08432780398130417,-0.10811565293446182
1768580182927355000,1.69635498046875,0.07471709507107734,0.06639058075249195,-0.043750244166911575
1768580182937327600,1.70632763671875,0.21854630481302736,0.1041290675163269,-0.0006406245746533386
1768580182947300600,1.716300537109375,0.26232392561063167,0.11008476105034351,0.06724940780522301
1768580182957274600,1.726274658203125,0.1787210749030113,0.03200081989467144,0.08677664930499158
1768580182967247600,1.73624755859375,0.11527823804020881,-0.017289572975039483,0.07644329324259888
1768580182977220900,1.746220947265625,0.13886428081095217,0.01705868682861328,0.05042148382544983
1768580182987195000,1.75619482421875,0.23130188762024043,0.012554945668578147,0.02803298027620185
1768580182997167600,1.766167724609375,0.3862339445263147,-0.021627309918403625,-0.03816917893183418
1768580183007141600,1.7761416015625,0.4081863947458565,0.06906009222269058,-0.10325346285873092
1768580183017114600,1.786114501953125,0.35466114078536626,0.1439484522074461,-0.09092153055737726
1768580183027087600,1.796087646484375,0.2937849395401776,0.08395721710324287,-0.0772031762657687
1768580183037061600,1.8060615234375,0.313511238142848,0.02703063026666641,-0.06712148884292692
1768580183047034600,1.81603466796875,0.28772330141365526,0.08881050235331057,-0.034447619391744955
1768580183057007900,1.8260078125,0.1272528996028006,0.12924655763804913,-0.022107869110116734
1768580183066982000,1.83598193359375,0.07067103455066681,0.07692424972653389,0.012626677464228122
1768580183076954600,1.84595458984375,0.21609569679051635,0.045832361370325085,0.0067999166726600375
1768580183086927600,1.855927734375,0.18628654172122477,0.0599661006629467,-0.05774468915327452
1768580183096901600,1.865901611328125,-0.004339344378560781,0.06801555160582065,-0.038083272480359295
1768580183106874600,1.87587451171875,0.018539865297079086,0.12368892351090907,-0.010192545652482657
1768580183116848600,1.8858486328125,0.12562749035805462,0.1344581548064947,-0.03156182568920776
1768580183126821600,1.895821533203125,0.20380203240662811,0.1007172132462263,0.026922904709028077
1768580183136795000,1.905794921875,0.3423743445336819,0.14277473225295542,0.0065516136005520816
1768580183146769000,1.915768798828125,0.18185498901456593,0.24283494289517402,-0.04827128808819688
1768580183156741600,1.92574169921875,0.17719284242242575,0.2061100170880556,-0.06031691426145844
1768580183166714600,1.935714599609375,0.20303134029507636,0.21899054144918917,-0.09037760553956031
1768580183176688600,1.945688720703125,0.09840133751928806,0.22425123845636843,-0.13156402253387495
1768580183186661600,1.95566162109375,0.09129472038447857,0.23853578439652917,-0.12647779617761262
1768580183196635000,1.965634765625,0.17992518999576568,0.18209668881595134,-0.0315229549835436
1768580183206609000,1.97560888671875,0.20815730500668286,0.10460077668130398,0.06663816230539232
1768580183216582000,1.985581787109375,-0.13797697658240796,0.11747662486732005,0.17910148905534296
1768580183226556000,1.995555908203125,-0.32842034572213885,-0.009416647642850875,0.26914401742164046
1768580183236528600,2.005528564453125,-0.18324907372146843,-0.10817395899295806,0.09141794490534812
1768580183246501600,2.015501708984375,-0.27150340349674223,-0.04115618625283241,-0.09302089572311378
1768580183256475600,2.0254755859375,-0.2507251116231084,-0.1479740544617176,-0.08223142535709775
1768580183266448600,2.03544873046875,-0.15395079078376292,-0.27891046488285065,-0.179472678721603
1768580183276422000,2.045421875,-0.32498569509834047,-0.25784780310988425,-0.35730705218426884
1768580183286396000,2.05539599609375,-0.49395080740153785,-0.25516309407055376,-0.29715711938701567
1768580183296368600,2.06536865234375,-0.45574967156201596,-0.22802432725429533,-0.1629048624161631
1768580183306341600,2.075341552734375,-0.2118003376841545,-0.19301029701828956,-0.11604717658609151
1768580183316315600,2.085315673828125,0.006528524985909462,-0.11749416052401065,-0.12695641914056613
1768580183326288600,2.09528857421875,0.004442366361618042,-0.0723486123740673,-0.04268134999349713
1768580183336262700,2.1052626953125,0.0577525162667036,-0.015122750329971313,0.057964368919096884
1768580183346235600,2.115235595703125,0.0016404606834053992,0.023853753796219825,0.11198135191928595
1768580183356209000,2.125208984375,-0.17149989147782324,0.051152679610252376,0.19195203840332103
1768580183366183000,2.135182861328125,-0.018920973569154738,0.10921791508793831,0.22417267506113275
1768580183376155600,2.14515576171875,-0.123539870429039,0.09689970078468323,0.13197771790130064
1768580183386128600,2.155128662109375,-0.14676818580329418,0.003803483936190605,0.10589742889571935
1768580183396102700,2.1651025390625,-0.18846067088991403,-0.045324411848187446,-0.05098704071976244
1768580183406075600,2.17507568359375,-0.31208646603673695,-0.12102759534716605,-0.19333958377158267
1768580183416049700,2.185049560546875,-0.20932371843755243,-0.16344225722849368,-0.2724192214337177
1768580183426022700,2.195022705078125,0.13580080158710478,-0.15647650986909867,-0.3336844037301838
1768580183435996000,2.204995849609375,0.14856909774541854,-0.037248072898387906,-0.3541805907268077
1768580183445970000,2.214969970703125,0.06326689577400683,0.031764673051238056,-0.21389177527176215
1768580183455942700,2.224942626953125,0.005985504150390624,0.10787234569787979,0.008784487219154834
1768580183465915600,2.23491552734375,-0.08784311862587928,0.20672668768167496,0.07577118896758184
1768580183475889700,2.2448896484375,-0.08980945026278496,0.22104981206655502,0.016531448084115982
1768580183485862700,2.254862548828125,-0.14613047242164612,0.18918050959706306,-0.03383799046026543
1768580183495836700,2.264836669921875,-0.09099193804562092,0.039519524961709976,-0.0238410952440463
1768580183505809700,2.2748095703125,0.061252048820257185,-0.07102233220636844,-0.10000395041033625
1768580183515782700,2.28478271484375,-0.04449263719916344,-0.1515425605982542,-0.10752447297512553
1768580183525756700,2.294756591796875,-0.1835018794387579,-0.20260756192505358,-0.015218082196917384
1768580183535729700,2.304729736328125,-0.3801648537456989,-0.30558862845003604,0.03877975771138444
1768580183545702700,2.31470263671875,-0.5393237345665693,-0.354714770668745,0.013403634919784963
1768580183555676700,2.3246767578125,-0.6451707119166851,-0.31973931887745854,-0.016233889909647404
1768580183565649700,2.334649658203125,-0.6815098532766103,-0.335208690688014,0.039700206157704816
1768580183575623700,2.344623779296875,-0.5394470686852931,-0.20530922209918498,0.030891488679591565
1768580183585596700,2.3545966796875,-0.3133762135863304,-0.045239071652293204,-0.05007690360490232
1768580183595569700,2.364569580078125,-0.14136311188936232,-0.029897710135579108,-0.02770509546212852
1768580183605543700,2.374543701171875,-0.1377788236618042,0.029516017341613767,0.05471036295867525
1768580183615516700,2.3845166015625,-0.29567279911339284,-0.015667524731159208,0.10045426059425808
1768580183625489700,2.39448974609375,-0.2768547013968229,-0.17279928363859653,0.11257166422894224
1768580183635463700,2.404463623046875,-0.21658055769801138,-0.24096330380439757,0.048916399325011295
1768580183645441000,2.41444091796875,-0.3353963222146034,-0.27059447195827957,-0.040288952131359836
1768580183655415000,2.4244150390625,-0.36670214558243747,-0.26710604532063004,-0.02773668704363517
1768580183665387800,2.4343876953125,-0.23456454267799853,-0.27672786014676093,-0.052260060896840876
1768580183675361000,2.444361083984375,-0.2893728221863508,-0.28876082776784895,-0.18904243456693365
1768580183685335000,2.4543349609375,-0.30611645171642304,-0.3196528096377849,-0.26246695081051435
1768580183695308000,2.46430810546875,-0.16044073732495306,-0.27858780879974365,-0.26061401642020793
1768580183705281000,2.474281005859375,-0.18009470134377478,-0.17019991479516028,-0.20509979886589572
1768580183715255000,2.484255126953125,-0.072144029712677,-0.12755845842063426,-0.03088394697724143
1768580183725228000,2.49422802734375,0.10712766481041908,-0.10041326186358929,0.06325181693588383
1768580183735202000,2.5042021484375,-0.011475918260216713,-0.06939385422170162,0.008081853091844823
1768580183745174800,2.5141748046875,-0.10736556521952152,-0.06844225258529185,-0.08142676704386248
1768580183755148000,2.52414794921875,-0.24576164399683473,-0.12263678410947322,-0.17270658212015405
1768580183765122000,2.5341220703125,-0.32106501452326774,-0.14038111511468887,-0.1752928905526176
1768580183775095000,2.544094970703125,-0.2752057651460171,-0.13386018891334533,-0.13874828061531297
1768580183785068000,2.554068115234375,-0.2764122183263302,-0.16611878296136856,-0.1427296692685224
1768580183795042000,2.5640419921875,-0.2866851905375719,-0.1564402695119381,-0.15240834711473433
1768580183805014800,2.574014892578125,-0.22259821055233478,-0.12145838797986507,-0.13162675817231648
1768580183814988800,2.58398876953125,-0.3285597541928291,-0.10358663120269775,-0.10223050388600677
1768580183824961800,2.5939619140625,-0.38819676903188227,-0.14711305371820926,-0.0609780039521167
1768580183834935000,2.60393505859375,-0.13319324943721295,-0.19694646742343902,-0.04699639104786329
1768580183844909000,2.613908935546875,-0.12970190019011496,-0.17213059059679509,-0.0679136210347293
1768580183854882000,2.623882080078125,-0.2510872229337692,-0.21157178962528705,-0.06478324602055363
1768580183864855000,2.63385498046875,-0.3890612769067287,-0.23156536086201665,-0.06810052190895657
1768580183874829000,2.6438291015625,-0.3886287307083606,-0.21711948688030241,-0.04916737841139547
1768580183884801800,2.6538017578125,-0.24950726026594638,-0.21731822432279585,-0.0731770031893393
1768580183894775800,2.66377587890625,-0.23128654392063616,-0.24219722951352596,-0.09144599282289854
1768580183904748800,2.673748779296875,-0.34095804799497126,-0.24628888274133204,-0.004216498883604072
1768580183914722000,2.68372216796875,-0.3617103286445141,-0.21979075191617012,0.0740262906621676
1768580183924696000,2.693696044921875,-0.37935529092848297,-0.1629752242386341,0.03359726562312571
1768580183934669000,2.7036689453125,-0.50590135743618,-0.22300036161243914,-0.01625987601756351
1768580183944642000,2.71364208984375,-0.629585020250082,-0.3388946857243776,-0.08593810698846355
1768580183954616000,2.723615966796875,-0.6562935789555311,-0.32071488591134545,-0.1590632932255976
1768580183964588800,2.7335888671875,-0.6100409463465214,-0.29689561890661714,-0.1584453987892717
1768580183974562800,2.743562744140625,-0.5375491261094808,-0.3393704865425825,-0.15470831288648768
1768580183984535800,2.753535888671875,-0.5227595532566308,-0.309070625346899,-0.17019483676124364
1768580183994509000,2.763509033203125,-0.34798166302144523,-0.23149229562580584,-0.11925495051830075
1768580184004483000,2.773483154296875,-0.08272036878466606,-0.16325696378946303,-0.07006283952444792
1768580184014456000,2.7834560546875,-0.25541034682989117,-0.13632570224404333,0.0013050181839615105
1768580184024428800,2.7934287109375,-0.4285936613500118,-0.1980535518825054,0.10504862091350368
1768580184034402800,2.80340283203125,-0.3129787387013435,-0.20273966387212275,0.04934322816864587
1768580184044375800,2.813375732421875,-0.20785949110388754,-0.22303192579448222,-0.02054738061103271
1768580184054349800,2.823349853515625,-0.4073404454410076,-0.2688900061279535,0.009011740653368178
1768580184064323000,2.833322998046875,-0.6667711338281631,-0.31042496256530283,0.019024625739874318
1768580184074296000,2.843296142578125,-0.6830085674017667,-0.3200777570515871,-0.0007152584301540627
1768580184084270000,2.85327001953125,-0.669527739059925,-0.2933177604198456,-0.03922129093380645
1768580184094243000,2.8632431640625,-0.6361848569065333,-0.301118205037713,-0.08849151779832318
1768580184104217000,2.873217041015625,-0.5977917056262493,-0.2977005055487156,-0.07958194289477541
1768580184114189800,2.88318994140625,-0.472980500087142,-0.29175299532115456,-0.07199123203745111
1768580184124162800,2.893162841796875,-0.3055295917391777,-0.24522622194588184,-0.04195356544191017
1768580184134136800,2.90313671875,-0.30001521223187444,-0.19194705170094967,-0.01729589311797172
1768580184144110000,2.913110107421875,-0.46062429186105724,-0.2678630011677742,0.000373290291801095
1768580184154083000,2.9230830078125,-0.5607739343523979,-0.2824959221541881,-0.014313141846982761
1768580184164057000,2.93305712890625,-0.4575543828964233,-0.23436931236684322,-0.05956229650187306
1768580184174030000,2.943030029296875,-0.42232174147367474,-0.24618776045441626,-0.09064915248993784
1768580184184004000,2.953004150390625,-0.4928232646763324,-0.21131635355949402,-0.07242483768174425
1768580184193976800,2.962976806640625,-0.5028682733505964,-0.15772797123491764,-0.025301541451737283
1768580184203949800,2.97294970703125,-0.5037596692323685,-0.1806786387115717,-0.038090789066534486
1768580184213923800,2.982923828125,-0.5825754317939281,-0.14419745853245258,-0.04734424550430849
1768580184223897000,2.99289697265625,-0.5803145011246204,-0.10942425131499767,-0.040402262612991034
1768580184233871000,3.00287109375,-0.5704986250311136,-0.15522095685005188,-0.056422619369812306
1768580184243844000,3.012843994140625,-0.5781459249138832,-0.1241495267599821,-0.07972376251826062
1768580184253816800,3.02281689453125,-0.6122317343890666,-0.005083586874604225,-0.09959166154870763
1768580184263790800,3.032790771484375,-0.6038070203930139,-0.0031558336824178694,-0.08773050683056935
1768580184273763800,3.042763916015625,-0.49762452747821806,-0.0033066403299570083,0.00017681787163019178
1768580184283736800,3.05273681640625,-0.4119540767163038,0.02206102516055107,0.02714497736133635
1768580184293710800,3.0627109375,-0.5179425083637237,-0.014327800559997557,-0.024931995753291993
1768580184303684000,3.07268408203125,-0.5046306068480014,-0.008588380125164986,-0.014773717696592211
1768580184313658000,3.082658203125,-0.4135404691249132,-0.005284077882766723,-0.04816814737413078
1768580184323631000,3.092631103515625,-0.4849170215964317,0.03698737613558769,-0.08895349102057516
1768580184333603800,3.102603759765625,-0.38371290161609645,0.13436930747926235,0.011754004549235106
1768580184343577900,3.112577880859375,-0.17599135767817498,0.14342004441916942,0.006171820502728223
1768580184353550800,3.12255078125,-0.04122340627014637,0.14767887090742587,-0.08696944106388836
1768580184363524900,3.13252490234375,0.17528759332299232,0.19719898087978363,-0.06028809915892779
1768580184373497900,3.142497802734375,0.24738603032827375,0.21923428707718848,-0.07962854024916886
1768580184383471000,3.15247119140625,0.11865677456259727,0.21900983067154883,-0.1388631117671728
1768580184393445000,3.162445068359375,-0.029362872606515884,0.2937047139108181,-0.14460008451659231
1768580184403418000,3.172418212890625,-0.0594341857433319,0.24266426250338552,-0.12200308931581676
1768580184413392100,3.18239208984375,-0.19686200401037932,0.2114811887323856,-0.18474194262772797
1768580184423364900,3.19236474609375,-0.24727614021301267,0.2874684498697519,-0.11876107518728822
1768580184433337900,3.202337890625,-0.1849371729388833,0.2286059265345335,-0.05509327046219259
1768580184443311900,3.212311767578125,-0.14001257406324147,0.21016893709003925,-0.02378790375208482
1768580184453284900,3.222284912109375,-0.1303030809536576,0.233864285454154,-0.00885704099871218
1768580184463258000,3.232258056640625,-0.08386603168845176,0.16292670892179012,-0.07483438304150476
1768580184473232100,3.242232177734375,-0.15407237133681773,0.14692133053839207,-0.1680901378332637
1768580184483204900,3.252204833984375,-0.15508125611841678,0.23022037599384784,-0.1649802439181134
1768580184493179000,3.262178955078125,-0.020246961475908754,0.27907822266519067,-0.11168421386992558
1768580184503151900,3.27215185546875,0.006174012459814548,0.22596856376826763,-0.14805466368356718
1768580184513124900,3.282124755859375,0.12179828745871782,0.16665829666554927,-0.11997932840324937
1768580184523099000,3.292098876953125,0.08639291981756686,0.17047931625843046,-0.0815866794464644
1768580184533072000,3.30207177734375,0.0408428825199604,0.1459007553189993,-0.07800561522245407
1768580184543046000,3.3120458984375,0.045939036615192885,0.10475509046018124,-0.07858033723733387
1768580184553019100,3.32201904296875,-0.07528232773840426,0.10616729534566402,-0.11820618125088513
1768580184562991900,3.331991943359375,-0.15282061771005392,0.11581833626627921,-0.07423269995446316
1768580184572966000,3.3419658203125,-0.00997720413506031,0.07619418188631534,0.03401134686633013
1768580184582939000,3.35193896484375,-0.041403731273114676,0.03999415673613548,-0.014726417089300229
1768580184592912000,3.361911865234375,-0.1090390513896942,0.07159165652692318,-0.03988264091936871
1768580184602886000,3.371885986328125,-0.05551905812621116,0.11536533180177211,-0.014511435189837356
1768580184612859100,3.381859130859375,0.02147328840047121,0.09878010770380496,-0.04318218022168148
1768580184622833000,3.3918330078125,-0.09527151506096124,0.10539397288560867,-0.06782596558416262
1768580184632806100,3.40180615234375,-0.1522965938359499,0.08815057713985443,-0.04592024971633218
1768580184642779000,3.41177880859375,-0.05886486142277717,0.03296235840320587,-0.0022827634752029553
1768580184652749300,3.421749267578125,-0.07906213853806257,0.04130757742226124,-0.041597043621819464
1768580184662722300,3.431722412109375,-0.07773293576091528,0.08183949429690837,-0.07672922947793268
1768580184672696300,3.4416962890625,-0.11217734941542148,0.05778057331740856,-0.07871858579739928
1768580184682669300,3.45166943359375,-0.19454335180446505,0.07888941231966018,-0.1105859703044407
1768580184692642300,3.461642333984375,-0.17101444604843855,0.11361761135160922,-0.13910703092510812
1768580184702616300,3.4716162109375,-0.11665303352475166,0.029897710135579108,-0.11647327477736398
1768580184712589300,3.48158935546875,-0.19107728312909603,-0.036734278157353396,-0.14079273725603705
1768580184722563300,3.491563232421875,-0.25192045888751746,-0.017302432456612588,-0.17958497998965903
1768580184732536300,3.501536376953125,-0.20451368780732154,-0.025397476106882092,-0.20972882863972334
1768580184742509300,3.51150927734375,-0.10881327980980277,-0.0791501090824604,-0.2251351268851198
1768580184752483300,3.5214833984375,-0.00628156448751688,-0.10497662425637244,-0.2116713410096243
1768580184762456300,3.531456298828125,0.0192103119045496,-0.05207856228351593,-0.23298120074300094
1768580184772430300,3.541430419921875,-0.05812251862287521,0.051344987311959266,-0.2653407526811585
1768580184782403300,3.5514033203125,-0.1252560266971588,0.04755144024789333,-0.15522260081786662
1768580184792376300,3.561376220703125,-0.2150866658784449,0.0074538231372833245,-0.03345394131243229
1768580184802350300,3.571350341796875,-0.30089725576341153,0.043619946017861365,0.010303958721261006
1768580184812323300,3.5813232421875,-0.44419104345440863,0.006453121662139892,-0.06576333396593108
1768580184822297300,3.59129736328125,-0.46991541342809795,-0.1009440077394247,-0.17014886046135796
1768580184832270300,3.601270263671875,-0.3980782577075064,-0.1171872865319252,-0.1676721316169016
1768580184842243300,3.611243408203125,-0.42420974717736243,-0.10319324797093868,-0.08893625675798393
1768580184852217300,3.62121728515625,-0.45750192205682394,-0.134319623118639,-0.0623916336097056
1768580184862190300,3.6311904296875,-0.3579693885505199,-0.13206862932145594,-0.0679783157348167
1768580184872164400,3.641164306640625,-0.25898995888233184,-0.0712462040901184,-0.0956694009379018
1768580184882137300,3.651137451171875,-0.16581439318731425,-0.023345804274082182,-0.10683008836964145
1768580184892110300,3.6611103515625,-0.12469488568305968,-0.008436404433846472,-0.11733324347441083
1768580184902084400,3.67108447265625,-0.11632511674463748,0.005338438418507576,-0.1036809492894914
1768580184912057300,3.681057373046875,-0.2591132199358195,0.010125672695040703,-0.06439901420962997
1768580184922030300,3.6910302734375,-0.4073175760220736,0.07400397836565971,-0.03668815572699532
1768580184932004000,3.701004150390625,-0.3205424519538879,0.0457926138818264,0.020526828730059787
1768580184941977300,3.710977294921875,-0.12489537669122218,0.07170622281730174,-0.018562218692782333
1768580184951951400,3.720951416015625,-0.1695452502787113,0.11566869866251944,-0.08168172818562015
1768580184961924400,3.73092431640625,-0.24616547555737195,0.09946925901174544,0.006910843400959856
1768580184971897300,3.7408974609375,-0.1346749393623322,0.09500760342776775,0.05224527431966271
1768580184981871400,3.750871337890625,-0.06970774247646332,0.08024082692861556,0.0092775770988781
1768580184991844400,3.76084423828125,-0.03997143344767391,0.06409925494492054,-0.016474484599335117
1768580185001818400,3.770818359375,-0.008168693408370018,0.02903846295773983,-0.05986592822410166
1768580185011791000,3.780791015625,0.04314648328721523,0.03595218786895275,0.006393610027246177
1768580185021764400,3.790764404296875,0.09254742385931312,0.11723813993632792,0.02551686470285058
1768580185031738400,3.80073828125,0.07309508335981518,0.15133973150253294,-0.04716828614920377
1768580185041711400,3.81071142578125,0.08716920141968876,0.2387012040913105,-0.08648176714479923
1768580185051685400,3.820685302734375,0.24326520580491048,0.28099311637580393,-0.004617375868652016
1768580185061658400,3.830658447265625,0.3876718683749437,0.2303308506309986,0.02810713692437857
1768580185071631400,3.84063134765625,0.397884050309658,0.330229148709774,-0.032583204626198854
1768580185081605400,3.85060546875,0.3893710735082626,0.433216644975543,-0.073257562178839
1768580185091578400,3.860578369140625,0.43782969172894953,0.42952422019839287,-0.041547067000251264
1768580185101552000,3.87055224609375,0.566530890443921,0.46854047181308267,-0.02384361599469557
1768580185111525400,3.880525390625,0.7863117054879665,0.43969490107893944,-0.05407059461725876
1768580185121498400,3.890498291015625,0.9631143795490265,0.3109574620068073,-0.12178833232028409
1768580185131472400,3.900472412109375,0.8354881165891885,0.12383213137388228,-0.2359071894586086
1768580185141445400,3.9104453125,0.43081776714026926,0.03356383142769336,-0.18737181620728224
1768580185151419400,3.92041943359375,0.09693769470751284,-0.07131810028254985,-0.00031900282129645346
1768580185161392000,3.93039208984375,0.09850540068196133,-0.17137012761831283,0.09928696124739944
1768580185171365400,3.940365478515625,0.3067968351960182,-0.17862638235688208,0.07094751340448856
1768580185181339100,3.950339111328125,0.43147593878805635,-0.16557050142884253,-0.015377528808638453
1768580185191312400,3.9603125,0.46886312789618967,-0.1492857215821743,-0.024558467999473213
1768580185201286400,3.970286376953125,0.3756768946766853,-0.10476619637608528,-0.008760540087986737
1768580185211259400,3.98025927734375,0.2330038509662263,-0.03317863150238991,-0.016186653234437107
1768580185221232400,3.990232421875,0.24374387443363665,-0.03369710241854191,0.06553858529934659
1768580185231206400,4.000206298828125,0.341947059032321,-0.02430266660749912,0.09641533306753262
1768580185241179100,4.01017919921875,0.4030465476393699,-0.07865034286677837,0.0960296947508119
1768580185251153200,4.020153076171875,0.40789106506109235,-0.07316460493206978,0.06953481532866135
1768580185261126400,4.03012646484375,0.407852486616373,-0.06427870316505432,-0.01686762123592198
1768580185271099400,4.040099365234375,0.43302609083950516,-0.18577099341452122,-0.07955912827476859
1768580185281073400,4.050073486328125,0.4717430672466755,-0.31068916645944117,-0.1047064564123284
1768580185291046400,4.06004638671875,0.369739321321249,-0.36342648491263385,-0.12200528127290308
1768580185301020400,4.0700205078125,0.15881286212848497,-0.3600198913395405,-0.10168922748300246
1768580185310993400,4.079993408203125,0.022141122925747183,-0.32295828092396256,0.04283940836573019
1768580185320966100,4.089966064453125,0.03375265026437119,-0.3565402325302362,0.1257911016882397
1768580185330940200,4.099940185546875,0.14275429225312544,-0.3022866642951965,0.10672217101575807
1768580185340913400,4.109913330078125,0.2169371160507202,-0.15811258663833141,0.12168292658389546
1768580185350887400,4.119887451171875,0.18506898262500762,-0.05753799673318863,0.22673414131328462
1768580185360860400,4.1298603515625,0.21947511009573936,-0.008993453794717788,0.2945509189439937
1768580185370833400,4.13983349609375,0.28968729496300216,0.06485796435773372,0.3635983343482017
1768580185380807400,4.149807373046875,0.30742636527121064,0.08275602461993693,0.4323598454831168
1768580185390780400,4.159780517578125,0.3645972822576761,0.15633680913746356,0.41793088610358536
1768580185400754200,4.169754150390625,0.3611778657356277,0.18370295496881006,0.2788914861877449
1768580185410727200,4.17972705078125,0.2285048407802358,0.10623159275352954,0.13499995179930702
1768580185420700400,4.189700439453125,0.017829123211838303,0.005597381615638733,0.01778979584844783
1768580185430674400,4.19967431640625,-0.26345044542253016,-0.09924012643098831,-0.07527671998152509
1768580185440647400,4.2096474609375,-0.3786351599603891,-0.19670038370788095,-0.10355263760155066
1768580185450621400,4.219621337890625,-0.48277471233811226,-0.26347733342945573,-0.07472706847582011
1768580185460594400,4.229594482421875,-0.5836444857975468,-0.21113573629558086,-0.008725213046278804
1768580185470567200,4.239567138671875,-0.8069049961835145,-0.09976619613170623,0.16703122163116932
1768580185480541200,4.249541259765625,-0.7781856821775436,0.04453004660010337,0.49569100213237105
1768580185490514200,4.25951416015625,-0.22228428576495496,-0.3743927000850439,0.4719271551093086
1768580185500488200,4.26948828125,-0.26291447538230567,-0.16628361813426018,0.46683016076385975
1768580185510461400,4.27946142578125,-0.008871325252391397,0.08969663753807544,0.34735454409904776
1768580185520434400,4.289434326171875,0.09318678120877594,-0.01533025560081005,0.24450870305998249
1768580185530408400,4.299408447265625,0.27230014336500313,0.022573650857806205,0.23802735995035618
1768580185540381400,4.30938134765625,0.4047357793679461,0.034328970581293104,0.13129256691504268
1768580185550355500,4.31935546875,0.36047055771648884,-0.06845686563253402,-0.08282978397589176
1768580185560328200,4.329328125,0.28589319990966466,-0.03435352050065994,-0.23036168416067956
1768580185570301200,4.33930126953125,0.272787013566494,-0.11489596072435378,-0.3139403868077323
1768580185580275200,4.349275146484375,0.3307897417346015,-0.23981354924738404,-0.4396980428840965
1768580185590248400,4.35924853515625,0.19430910465717313,-0.21298867068588734,-0.5576757856739685
1768580185600222500,4.369222412109375,-0.10021806808505207,-0.054768532019853586,-0.4398840669754892
1768580185610195500,4.379195556640625,-0.40360297594573347,-0.12043489015102386,-0.1303217125888914
1768580185620168400,4.38916845703125,-0.6000888766527176,-0.28153204555809497,0.08393723376113921
1768580185630142200,4.39914208984375,-0.6539870555788279,-0.11999942134320735,0.2288113494461402
1768580185640115200,4.409115234375,-0.4957687070110812,0.08128244493603706,0.24670287036970256
1768580185650089000,4.4190888671875,-0.2749731619665399,-0.0023690672188997268,0.26799568763673304
1768580185660062000,4.42906201171875,-0.13084409249518067,-0.05351122543513775,0.19741649608798323
1768580185670035200,4.43903515625,0.0076245035290718076,-0.03250058611035347,0.056921947194077074
1768580185680009200,4.44900927734375,0.3107669078707695,0.02716448577940464,-0.08489734749756753
1768580185689982200,4.458982177734375,0.650042117345333,0.092177932959795,-0.35934199207797646
1768580185699956200,4.468956298828125,0.7826987756878138,0.16165712737739085,-0.680711250244826
1768580185709929200,4.47892919921875,0.7902472913712263,0.008207271853089332,-0.7047908486861735
1768580185719902000,4.48890185546875,0.6689648444801568,-0.1795803220808506,-0.49534394226036965
1768580185729876000,4.4988759765625,0.23401516516692936,-0.16441139452159403,-0.21791282921507954
1768580185739849200,4.50884912109375,-0.10545184055268764,-0.05861819318532943,0.049152920627780254
1768580185749823000,4.518822998046875,-0.356244537519291,0.09260346489548682,0.19087953206729144
1768580185759796200,4.528796142578125,-0.44812772531621153,0.037376667714118954,0.3344175403103232
1768580185769769200,4.538769287109375,-0.36996027059555053,-0.06910802301764488,0.3267551524562761
1768580185779743200,4.5487431640625,-0.2944698530644178,0.02831073320508003,0.21096754012182353
1768580185789716000,4.558716064453125,-0.13777122487723825,0.03882745104432106,0.030915874202176927
1768580185799690000,4.56868994140625,0.08800210857987403,-0.11639993554651737,-0.2011542213115841
1768580185809663000,4.5786630859375,0.3652192135483026,-0.1266945350676775,-0.3082908000808209
1768580185819636200,4.58863623046875,0.812288442787528,0.04228723610937595,-0.27233634718954564
1768580185829610000,4.59860986328125,1.045753499791026,0.2134469358474016,-0.4344049049120396
1768580185839583200,4.608583251953125,0.7538708136755973,0.163119016623497,-0.5868689642693847
1768580185849557200,4.61855712890625,0.30822021906264124,0.06500000317692756,-0.4906673287514597
1768580185859530200,4.6285302734375,-0.11845737953297793,0.03205634947419166,-0.41176498388499017
1768580185869503000,4.6385029296875,-0.3204442522764206,-0.10909867262244224,-0.3611843320090323
1768580185879477000,4.64847705078125,-0.3220627203237265,-0.08576748139560222,-0.32954043579325076
1768580185889450000,4.658449951171875,-0.36615496002845466,-0.11630348943471908,-0.2712494287356734
1768580185899424000,4.668424072265625,-0.2685042216807604,-0.13128069381415844,-0.04564874843172729
1768580185909397200,4.678397216796875,-0.058446928271651266,0.06633914282619953,0.1892894498642534
1768580185919370200,4.688370361328125,-0.04816518823206425,0.2063449948877096,0.20593831378296015
1768580185929344300,4.69834423828125,-0.081045713570714,-0.021571195816993714,0.10723770105615257
1768580185939317200,4.708317138671875,0.058926236221194264,-0.18818857595026492,-0.18858992329277097
1768580185949291300,4.718291259765625,0.0067700786568224425,-0.2513157709926367,-0.4794459697742015
1768580185959264000,4.728263916015625,-0.1722819817662239,-0.306067936399579,-0.5287275217503309
1768580185969237000,4.738237060546875,-0.26677798241004347,-0.35162031178474423,-0.5560797121215612
1768580185979211000,4.7482109375,-0.2002859871096909,-0.4654921901583671,-0.6164769707433879
1768580185989184300,4.758184326171875,-0.11627879338487981,-0.4798509703785181,-0.5833279306616633
1768580185999158000,4.768157958984375,-0.2491786128334701,-0.3801069860786199,-0.4500557707693428
1768580186009131300,4.77813134765625,-0.31171675594151016,-0.19366028535962104,-0.19332550044730304
1768580186019104000,4.78810400390625,-0.32474282625317574,-0.07822773354053497,-0.0008715221375226974
1768580186029078000,4.798078125,-0.4579208781212568,-0.013301964643597602,-0.04730499120615422
1768580186039051000,4.808051025390625,-0.5362479803830384,-0.014326631516218184,-0.313704276496917
1768580186049025000,4.81802490234375,-0.6221032861925662,-0.09928104296326637,-0.4098322622567415
1768580186058998000,4.827998046875,-0.5157349153168499,-0.19540332963466645,-0.4802704378996044
1768580186068971300,4.83797119140625,-0.35048166314363477,-0.15020225190520287,-0.5769513083018362
1768580186078945300,4.8479453125,-0.2997258738964796,-0.0607850158303976,-0.7013214190099388
1768580186088918300,4.857918212890625,-0.44547523804605005,-0.1651706884562969,-0.6612619419526309
1768580186098892300,4.867892333984375,-0.7748720275849104,-0.18425182102322576,-0.6054628978412598
1768580186108865000,4.877864990234375,-1.0945102241754532,-0.172020700481534,-0.5991444354094565
1768580186118839000,4.887839111328125,-1.3606032930612564,-0.26675357862114907,-0.570609318863973
1768580186128812000,4.89781201171875,-1.0992923438854514,-0.3198556387335062,-0.4004924792423844
1768580186138785000,4.907784912109375,-0.6473841501824558,-0.19343290634453295,-0.4006202703405171
1768580186148759000,4.917759033203125,-0.16812369304299354,0.0020785598397254942,-0.44060931251011787
1768580186158732300,4.927732177734375,0.1295224519699812,0.08018763543665408,-0.5015474730756133
1768580186168706300,4.937706298828125,0.14315167580656707,-0.19269114806652068,-0.5660363849252462
1768580186178679300,4.94767919921875,0.3808447257686406,-0.32819150540232656,-0.5476636198233813
1768580186188652000,4.957652099609375,0.874577360374853,-0.4574018226832151,-0.5447602265320718
1768580186198626000,4.9676259765625,1.0819553515721112,-0.5271405448198319,-0.4121988452576101
1768580186208599000,4.97759912109375,0.9537666324239223,-0.4999257901579141,-0.1654224712602794
1768580186218573000,4.987572998046875,0.8459862027931958,-0.5916197389930486,0.11238836181759834
1768580186228546000,4.997546142578125,0.8728034825701266,-0.49972062297463415,0.35285971738658845
1768580186238519300,5.007519287109375,0.8869652789134531,-0.34703123042881484,0.5559888189677149
1768580186248493300,5.017493408203125,0.8506318366419523,-0.07926701346039772,0.7905666595187038
1768580186258466000,5.027466064453125,0.8577345082540064,0.047443888220191,0.8921542258586734
1768580186268440000,5.037440185546875,0.8992273060500622,0.12463058827519416,0.6451939466618001
1768580186278413000,5.0474130859375,0.8308890252958983,0.08669804024398327,0.28556824227161703
1768580186288387000,5.057386962890625,0.8352795153398066,-0.016400515180826185,-0.00694200115762651
1768580186298360000,5.067360107421875,0.4846656771838665,0.11180910062491893,-0.07499372005537151
1768580186308333000,5.0773330078125,0.10529175462014972,0.17372107465863226,-0.14483838678449393
1768580186318307000,5.08730712890625,0.03208206843733787,0.1410948163419962,-0.011336217528581619
1768580186328280300,5.0972802734375,-0.041078371776267886,0.3203828774780035,0.1541694750357419
1768580186338254300,5.10725439453125,0.07522095293998718,0.25655484068989753,0.21953604650273917
1768580186348227000,5.11722705078125,0.19685002131164073,0.13465338511765002,0.1730084694098681
1768580186358200000,5.127199951171875,0.279266877105087,-0.047456747701764106,-0.00705751729607582
1768580186368174000,5.137174072265625,0.4426117383737117,-0.13024784363508224,-0.16836977675855158
1768580186378147000,5.14714697265625,0.43204701667428014,-0.16288988404273985,-0.2614038150910288
1768580186388121000,5.15712109375,0.3699831400144845,-0.09067512718141078,-0.2590287565227598
1768580186398094000,5.167093994140625,0.5406979455292225,-0.07644961795210838,-0.24042663964442906
1768580186408067300,5.1770673828125,0.6208627846121788,-0.08695172274410724,-0.20252309851199388
1768580186418041300,5.187041259765625,0.5983627835124731,-0.09735971951186656,-0.25006321364827455
1768580186428014000,5.19701416015625,0.6731091046780348,-0.1906780546784401,-0.33864728683456774
1768580186437988000,5.206988037109375,0.5805564931869507,-0.199460496070981,-0.2415049364004284
1768580186447961000,5.216961181640625,0.49893838655576106,-0.15648469317555427,-0.16326989633627234
1768580186457935000,5.22693505859375,0.33488428103923795,-0.05060322903394699,-0.13762538666576146
1768580186467908000,5.236908203125,0.22048925557434557,0.038466801038384436,-0.12448190051950514
1768580186477881000,5.246881103515625,0.22247546095550058,-0.13999883779883385,-0.12429912783112376
1768580186487855000,5.256855224609375,0.3526601762264967,-0.30413024633526803,-0.17747012499384582
1768580186497828000,5.266828125,0.4544650385789573,-0.31137013446092604,-0.23810619734022764
1768580186507802000,5.276802001953125,0.30927813061773773,-0.3940057475715875,-0.25345026227068157
1768580186517775000,5.286775146484375,0.32426760995686055,-0.4983890821099281,-0.09663388945534825
1768580186527748000,5.296748046875,0.30877200772650537,-0.2863280476629734,0.17373199791144578
1768580186537722000,5.30672216796875,0.112538657008484,0.23220541233122347,0.35799594776388255
1768580186547695000,5.316695068359375,-0.460499788698554,-0.03183656924366951,0.12144998547770082
1768580186557669000,5.326669189453125,-0.8150747125051915,-0.5317758034050464,-0.2730579029297456
1768580186567642000,5.33664208984375,-0.8698474823087453,-0.19739362666904925,-0.08021733645517379
1768580186577615000,5.346614990234375,-0.7740343346517533,-0.4820832594752311,0.7114423424646258
1768580186587589000,5.356589111328125,-0.6384598161011934,-0.5329483543157577,0.5356492473049089
1768580186597562000,5.36656201171875,-0.4943790427509695,-0.21593583005368708,0.03280066503547132
1768580186607536000,5.3765361328125,-0.40505788746178145,-0.1926777040630579,-0.38295682255178687
1768580186617509000,5.386509033203125,-0.0984556980550289,-0.4057669125139713,-0.7922445296030491
1768580186627483100,5.396483154296875,0.11834003676362335,-0.4745587091892957,-0.8533587043225764
1768580186637456100,5.4064560546875,0.07660963081941008,-0.22432839534580706,-0.749611694926396
1768580186647429400,5.416429443359375,-0.06560951337739825,-0.15264379983842372,-0.5145873892495408
1768580186657403400,5.4264033203125,-0.03677051851451397,-0.21869185076355932,-0.3132591265453025
1768580186667376600,5.436376708984375,-0.035370734719187016,-0.09937748907506465,-0.19961871883999555
1768580186677350400,5.446350341796875,0.035261721386760474,-0.025681553745269772,-0.13713106381017715
1768580186687323600,5.45632373046875,-0.1763650132961571,0.0011982698738574982,-0.005559679953753948
1768580186697296400,5.46629638671875,-0.3098645522035658,-0.1295738898962736,-0.09341193173415958
1768580186707270400,5.4762705078125,-0.3402881128441542,-0.019734628039598464,-0.2032047788995318
1768580186717243400,5.486243408203125,-0.21160510737299917,-0.027992753297090528,-0.2454835759741254
1768580186727217400,5.496217529296875,-0.1494417889267206,-0.20806407376527786,-0.20886676845028995
1768580186737190400,5.5061904296875,-0.08615852653980255,-0.11525018098950385,-0.27430017634211107
1768580186747163600,5.51616357421875,0.01172434006333351,0.0005061959564685822,-0.4433298600478098
1768580186757137700,5.5261376953125,0.14631445068642496,0.04903028062880039,-0.37208628630619495
1768580186767110700,5.536110595703125,0.4925924515951425,0.09386953930854797,-0.26897921878136694
1768580186777084700,5.546084716796875,0.9978584337372333,0.2822702967047691,-0.40818208389692007
1768580186787057400,5.556057373046875,1.127652103864029,0.6324374870717525,-0.4663640045568347
1768580186797031400,5.566031494140625,0.8889496576637029,0.7115683069318532,-0.25162920258967203
1768580186807004400,5.57600439453125,0.6775982327908278,0.5961334170252084,0.0510129149465356
1768580186816977400,5.585977294921875,0.4481089475505054,0.7562322090446949,0.30554829643964765
1768580186826951400,5.595951416015625,0.10762217032909392,0.5385054039210081,0.2440110922687687
1768580186836924700,5.605924560546875,-0.4263765698224306,-0.156496383613348,0.2001847186923027
1768580186846898400,5.6158984375,-0.44706703728213903,-0.045324411848187446,0.5611140895595774
1768580186856871700,5.62587158203125,-0.43114159226715565,-0.13506021235287188,0.5831759549703449
1768580186866844400,5.635844482421875,-0.5578594351451843,-0.1342407126635313,0.4736686284817755
1768580186876818400,5.645818359375,-0.4188535539064556,0.025945173117518424,0.32311332535520193
1768580186886791400,5.65579150390625,-0.007794526333734393,0.08300327737927436,0.054608665283024306
1768580186896765400,5.665765380859375,0.12431443499810993,0.25462241132259367,-0.1502240984108299
1768580186906738400,5.675738525390625,0.14231069493778048,0.22613339894115925,-0.1522411373216659
1768580186916712400,5.68571240234375,0.20854411236718295,-0.02489654084742069,-0.09149057175014168
1768580186926685700,5.695685791015625,0.3530734332025051,-0.2089595613002777,0.1660044358666986
1768580186936658400,5.705658447265625,0.3720780664671212,-0.18532909486591814,0.30519455109853294
1768580186946632400,5.715632568359375,0.21331600294411182,-0.206963419046998,0.21513375642318278
1768580186956605400,5.72560546875,0.030666940942406653,-0.26656594709455966,0.21684246003720908
1768580186966579500,5.735579345703125,-0.12838731046020985,-0.31274609898924827,0.23798995054941624
1768580186976552400,5.745552490234375,-0.26693536492884157,-0.4234183045387268,0.2143036257419735
1768580186986525400,5.755525390625,-0.3774975342325866,-0.46734863168001173,0.31842761522438373
1768580186996499500,5.76549951171875,-0.4989728733472526,-0.45722120541930195,0.29554617705903946
1768580187006472700,5.77547265625,-0.44581426074206826,-0.40770927875339985,0.2554317914767191
1768580187016446500,5.785446533203125,-0.3201506761573255,-0.3638993631213903,0.3314765549549833
1768580187026419500,5.79541943359375,-0.1965979462467134,-0.4234954614281654,0.28480745049957185
1768580187036392400,5.805392333984375,-0.0960017290316522,-0.4216729221761226,0.3392314433980733
1768580187046366500,5.815366455078125,-0.008620090437680483,-0.32707857572436333,0.29709406408816574
1768580187056339500,5.82533935546875,0.3561632159113884,-0.23673428793251514,0.329751228999719
1768580187066313500,5.8353134765625,0.45801630131974813,-0.0733773708999157,0.3015239362943917
1768580187076286500,5.845286376953125,0.16995719208046792,-0.1087608189702034,0.1712354683879763
1768580187086260500,5.855260498046875,0.19388298819959163,-0.09654489599764346,0.2602986303281039
1768580187096233700,5.865233642578125,0.16604966324791312,-0.07236322542130946,0.3681327629074454
1768580187106206500,5.87520654296875,0.04356923874393105,-0.14028934517800806,0.45440183714963495
1768580187116180500,5.885180419921875,0.08374109013453125,-0.1040460654079914,0.5273598866589367
1768580187126153500,5.895153564453125,0.14043313756287096,-0.06082768592834472,0.5121667014412582
1768580187136127500,5.90512744140625,0.15156725664809345,-0.022383681243658065,0.41885991058200595
1768580187146100500,5.9151005859375,0.08488149234130977,-0.07710428246855736,0.35518355722427364
1768580187156073500,5.925073486328125,0.2796096991933882,-0.14588906488120554,0.2116835794366896
1768580187166047500,5.935047607421875,0.42531230159178374,0.06144844817519188,0.026547011468186974
1768580187176020500,5.9450205078125,0.48047056358158585,0.1838145986497402,-0.03132569711208343
1768580187185994500,5.954994384765625,0.5827906819798052,0.07859948946237563,0.0005273848749697208
1768580187195967500,5.964967529296875,0.5153957464903592,-0.0427729737997055,0.08936433684378862
1768580187205941500,5.97494140625,0.3637964872688055,-0.06747662242352961,0.01638232193700969
1768580187215914500,5.98491455078125,-0.0016008593253791332,-0.013450433203577994,-0.22350093154571948
1768580187225887500,5.994887451171875,-0.42310909245908257,0.07930559190511703,-0.19254633276835084
1768580187235861500,6.004861572265625,-0.5072837517052888,-0.06847907746434212,-0.1452770704627037
1768580187245834500,6.01483447265625,-0.2951905685544014,-0.1642997508406639,0.026793022118508814
1768580187255808500,6.02480859375,-0.3255594033330679,-0.011639584389328956,0.1295030166171491
1768580187265781500,6.034781494140625,-0.3637596623897552,-0.03335106545984745,0.13995309896096586
1768580187275754500,6.04475439453125,-0.29996845048069953,-0.11058920344114304,0.2830294445089996
1768580187285728500,6.054728515625,-0.08284194933772086,-0.08983692279160022,0.30045944886803627
1768580187295701500,6.064701416015625,0.08567878019884229,-0.06372223832607268,0.2607867791712284
1768580187305675500,6.074675537109375,-0.00417056368291378,-0.0596738397181034,0.27781024855598807
1768580187315648500,6.0846484375,-0.08019684165641665,-0.12126257314682005,0.2651223241575062
1768580187325622500,6.09462255859375,-0.008612930044531822,-0.19213819035887716,0.26592063492834567
1768580187335595500,6.104595458984375,-0.2238040792107582,-0.05890870056450367,0.1878656276062131
1768580187345568500,6.114568603515625,-0.4191643003560602,-0.016353168907761572,0.08161269980370998
1768580187355542500,6.12454248046875,-0.45850028544440863,-0.06673077249228954,0.23725904245898127
1768580187365515500,6.134515625,-0.5934947390846907,-0.10270108053982258,0.4081289654701948
1768580187375489500,6.144489501953125,-0.7482100845001638,-0.14158990638256072,0.4230161534786224
1768580187385462500,6.154462646484375,-0.6025584085714072,-0.2273644020408392,0.3881903392910957
1768580187395435500,6.164435546875,-0.11037936008274554,-0.09868015446066856,0.11345306843966245
1768580187405409500,6.174409423828125,0.16301212218292058,0.06305296076238155,-0.04149374764412641
1768580187415382300,6.18438232421875,0.0932196970976889,-0.15475976907908914,0.14580723181664942
1768580187425356300,6.194356201171875,0.19425430573001504,-0.2843886040329933,0.2456890171520412
1768580187435329500,6.20432958984375,0.2822445777416229,-0.27863866220414635,0.2454763973146677
1768580187445303600,6.214303466796875,0.17917006077952682,-0.2592261057257652,0.19900383834466337
1768580187455276500,6.224276611328125,-0.01621865580789745,-0.18468319817781448,0.1259903323210776
1768580187465249500,6.23424951171875,-0.1592803152434528,-0.16015315255522727,0.15335414006486534
1768580187475223600,6.2442236328125,-0.3172172530539334,-0.1886339816302061,0.2188239527106285
1768580187485196500,6.254196533203125,-0.20425182200074193,-0.14390987376272676,0.2069417917370796
1768580187495170600,6.264170654296875,-0.07973821116872132,-0.10074059412181377,0.16987229027599096
1768580187505143300,6.274143310546875,-0.11720306862294673,-0.20962416268885134,0.11180895449444651
1768580187515117300,6.284117431640625,-0.03743913849107921,-0.26945406975150105,0.058225686736404894
1768580187525090600,6.294090576171875,0.08747655033580959,-0.24529636457264423,0.07392682147622108
1768580187535063600,6.3040634765625,0.082656582833454,-0.281356688991189,0.14477511228993534
1768580187545037600,6.31403759765625,-0.017675941944122312,-0.2549661101937294,0.18512845772728323
1768580187555010600,6.324010498046875,-0.07583652755506336,-0.22238544458448886,0.17009850024729967
1768580187564984600,6.333984619140625,-0.07454115398228169,-0.18604513418078422,0.07819324674904346
1768580187574957600,6.34395751953125,-0.24590704381689427,-0.14367606500685215,0.032591625394672155
1768580187584930300,6.353930419921875,-0.5066207577519118,-0.07775836246311664,-0.06993629053533076
1768580187594904300,6.363904296875,-0.2940560115665197,-0.0778559776186943,-0.0905665522404015
1768580187604877600,6.373877685546875,-0.03199431708864867,-0.07578677012920379,-0.014365940613299608
1768580187614851600,6.3838515625,-0.09819967746734619,-0.10750818856060504,0.05980214227288961
1768580187624824600,6.393824462890625,-0.07561952380351722,-0.09651099372804164,0.030072336050122973
1768580187634798600,6.403798583984375,0.03267367765493691,-0.07147884380221367,-0.004310264414548874
1768580187644771600,6.413771484375,-0.027166750801727174,-0.0673299074292183,0.07979717481434345
1768580187654744600,6.42374462890625,-0.10763846387676894,-0.09319909270107746,0.07242167761027812
1768580187664718600,6.433718505859375,-0.14694989904575048,-0.09235796570181846,0.022176760494709014
1768580187674691600,6.443691650390625,-0.1473508810620755,-0.018936755660176274,0.004088146096467972
1768580187684665600,6.45366552734375,-0.20536014856882392,-0.02342179211974144,0.05553586313053965
1768580187694638800,6.463638916015625,-0.1754372309267521,-0.02929799067676067,0.06680091511905192
1768580187704611600,6.473611572265625,-0.12835742677859963,0.007291910573840141,0.054461219636350866
1768580187714585600,6.483585693359375,-0.18188333832621573,0.019963760620355604,0.027267946153879164
1768580187724558600,6.49355859375,-0.2203138990074396,0.007288987964391708,0.042892800787091255
1768580187734532600,6.50353271484375,-0.20958032354712486,-0.05897592058181762,0.08989771306812763
1768580187744505600,6.513505615234375,-0.16929032566957175,-0.08032149094939231,0.09707388830780983
1768580187754479600,6.523479736328125,-0.1479856718342751,-0.07215455110669136,0.05559124657958746
1768580187764452600,6.53345263671875,-0.20057218363992868,-0.12624445321261882,0.1410185362353921
1768580187774425600,6.543425537109375,-0.11535407975539565,-0.17340134118497372,0.16984774035662412
1768580187784399600,6.553399658203125,-0.04297572983019054,-0.10818915656208991,0.14564429633989928
1768580187794372600,6.56337255859375,-0.17798801138810813,-0.12017127077877521,0.06863704450502991
1768580187804346600,6.5733466796875,-0.2078968274395913,-0.07595978860855102,-0.03726882342547178
1768580187814319600,6.583319580078125,-0.17964403496682643,0.04287409608662128,-0.008757599212229251
1768580187824292600,6.593292724609375,-0.1290939243596047,0.05443535454273223,0.006419511653482914
1768580187834266600,6.6032666015625,-0.07296352940201759,-0.0022498247534036633,-0.012628595426678657
1768580187844239600,6.613239501953125,-0.3768365861058235,-0.1435954009860754,0.004742079960554838
1768580187854213600,6.623213623046875,-0.48516149787679314,-0.3195230457782745,-0.01172244036719203
1768580187864186600,6.6331865234375,-0.42729938375577325,-0.33976679238379,0.049117520520836115
1768580187874160600,6.64316064453125,-0.4232562458448112,-0.3094774525821209,0.13886355015859006
1768580187884133600,6.653133544921875,-0.3143032653033733,-0.28607319611907006,0.1755238862968981
1768580187894106600,6.663106689453125,-0.2486872491199523,-0.18760405406057834,0.1611294502414763
1768580187904080600,6.67308056640625,-0.30416297956109045,-0.208214880412817,0.22179317777976393
1768580187914053600,6.6830537109375,-0.38598844533264637,-0.2158089888036251,0.18981179323792458
1768580187924027600,6.693027587890625,-0.29547289262712,-0.12359832261800766,0.06863602159172297
1768580187934000600,6.703000732421875,-0.14881569291763005,-0.034226094728708266,0.08599763688966632
1768580187943974700,6.712974609375,-0.1182593727428466,-0.05724105961322784,0.08238894487321376
1768580187953947600,6.72294775390625,-0.10751995206363499,-0.08203297104239464,0.06149579444825649
1768580187963920600,6.732920654296875,0.003532192714139819,-0.04816109657883644,0.07034457907527684
1768580187973894700,6.742894775390625,0.07276062724106014,-0.01075578729212284,0.06160480778068304
1768580187983867600,6.75286767578125,-0.18603987348377704,-0.10801204642951488,-0.0012003157004714011
1768580187993841700,6.762841552734375,-0.47156544565744696,-0.27053543524742124,0.04077215537130832
1768580188003814700,6.772814697265625,-0.20696867974400518,-0.2820055082887411,0.2818969333477318
1768580188013787400,6.782787353515625,0.12872699074335395,-0.2662783623248339,0.3765872875198722
1768580188023761400,6.792761474609375,0.267295941869542,-0.29962299804389475,0.25439400939419865
1768580188033734700,6.802734619140625,0.31340543968081475,-0.319594941970706,0.08128887467682361
1768580188043708700,6.812708740234375,0.30471714284513146,-0.258995219579339,0.017762305053323508
1768580188053681700,6.822681640625,0.35321083237919954,-0.26751404159963127,0.0480778022095561
1768580188063655700,6.83265576171875,0.37471710973381994,-0.2580278358519077,0.07683423335552216
1768580188073628700,6.842628662109375,0.3338642172764987,-0.24125614927113054,0.040510289564728734
1768580188083601700,6.8526015625,0.2563964717904106,-0.18342004637420176,-0.006557312688976526
1768580188093575700,6.86257568359375,0.23850655830204484,-0.16352350577116012,-0.06723229227364062
1768580188103548400,6.87254833984375,0.10551376334037631,-0.20938158610463142,-0.1050552424505353
1768580188113522400,6.8825224609375,-0.25169571022093296,-0.2036439192354679,-0.13864143184050917
1768580188123495700,6.89249560546875,-0.08216737454440444,-0.2535059745132923,-0.12736571232751012
1768580188133469700,6.9024697265625,0.3441361300418153,-0.20378888066411016,-0.04123275862038135
1768580188143442700,6.912442626953125,0.5092401464700699,-0.08489946638941764,-0.05504566846080124
1768580188153415700,6.922415771484375,0.452771240273118,0.02244096438884735,-0.11290303334146737
1768580188163389700,6.9323896484375,0.442640270348452,0.06288344941437245,-0.16523783540837467
1768580188173362700,6.94236279296875,0.5420890710940585,-0.014285714983940124,-0.239786149783805
1768580188183336700,6.952336669921875,0.624616584187746,0.024767361509799957,-0.2324195665385574
1768580188193309400,6.962309326171875,0.6380787078291177,0.09572013561129569,-0.21410415764711796
1768580188203282700,6.97228271484375,0.4911170452803373,0.16724106498956678,-0.2928784191545099
1768580188213256700,6.982256591796875,-0.06996900549484417,0.15000117637515067,-0.4095093869779259
1768580188223229700,6.992229736328125,-0.7138818445712327,-0.021442016479372977,-0.4463307588968426
1768580188233203700,7.00220361328125,-0.5772054291933775,-0.09622165539264678,-0.29577143718227744
1768580188243176700,7.0121767578125,-0.07403730067994911,-0.09966156671345233,-0.1703364006564021
1768580188253150700,7.022150634765625,0.20733108331561087,-0.14581833773255348,-0.20471848966442047
1768580188263123500,7.03212353515625,0.19239304190278053,0.033626959791779515,-0.23706118179932234
1768580188273096400,7.042096435546875,0.3476934937298298,0.09856792625784873,-0.24007811846770344
1768580188283070500,7.052070556640625,0.5622808317840099,0.10319500153660774,-0.29300781768783923
1768580188293043700,7.062043701171875,0.6440624584138394,0.25813947953283783,-0.2889510165777057
1768580188303017700,7.072017822265625,0.7358674664080143,0.3600619769155979,-0.24912030677497385
1768580188312990700,7.08199072265625,0.7424491828858852,0.3673544720113277,-0.18540347527638076
1768580188322964700,7.09196484375,0.5846165822327136,0.38860301174521444,-0.1709573820989579
1768580188332937700,7.101937744140625,0.20272976353261618,0.3421814523100853,-0.19201770578436553
1768580188342910500,7.111910400390625,-0.48499538406226783,0.14496084412038326,-0.24791874896548688
1768580188352884500,7.121884521484375,-0.6263198809742927,-0.021949381479620934,-0.18365875050090252
1768580188362857500,7.131857421875,-0.3423591104319319,-0.07893617407083511,0.00597001432031393
1768580188372831500,7.14183154296875,-0.40653731236457824,-0.2208937447220087,-0.008502382342144846
1768580188382804700,7.1518046875,-0.49800326113011684,-0.24128595988750456,0.03786803142763674
1768580188392777700,7.16177783203125,-0.25887659816835074,-0.10600012208521366,0.20722550404928625
1768580188402751700,7.171751708984375,0.00661444970369339,-0.015413842231035231,0.3212712776850909
1768580188412724700,7.181724853515625,0.06755666538979858,0.01919979051053524,0.22331088886633513
1768580188422698800,7.19169873046875,-0.2335246782362461,0.12027473115324973,0.03455123502984643
1768580188432671500,7.20167138671875,-0.8422609717249869,0.12878829247653484,-0.01056757124364376
1768580188442645500,7.2116455078125,-1.083786585587263,-0.020585107389092444,0.15452698323652148
1768580188452618500,7.221618408203125,-0.8426958560109138,-0.17408523179590701,0.28583047340437767
1768580188462591700,7.231591796875,-0.6543114652276039,-0.16441197904348373,0.24148060567677018
1768580188472565800,7.241565673828125,-0.5561703860796988,-0.20897826600074768,0.20220007710270582
1768580188482538800,7.251538818359375,-0.5819313617367297,-0.34645196923613547,0.27251214214786884
1768580188492512800,7.2615126953125,-0.7312544196546077,-0.45981356000006196,0.38844979394488033
1768580188502485500,7.271485595703125,-0.5423649288933724,-0.42894028283059593,0.4695551287483424
1768580188512459500,7.28145947265625,-0.28055655158944426,-0.32965105656087396,0.4557789707217365
1768580188522432500,7.2914326171875,-0.3028209903676063,-0.25072423484027384,0.31037739709652956
1768580188532405500,7.301405517578125,-0.2550606566093862,-0.13019874379634858,0.18462759553305805
1768580188542379500,7.311379638671875,-0.3604267916399985,-0.07140051786899566,0.15289565570764244
1768580188552352800,7.321352783203125,-0.5220411758542061,-0.16101239973306655,0.14873751311488448
1768580188562326800,7.331326904296875,-0.45873862424492834,-0.17200842552185058,0.22582382153533398
1768580188572299800,7.3412998046875,-0.6339796019472181,-0.24842355668246743,0.13137998947016893
1768580188582273800,7.351273681640625,-0.7476970204114913,-0.30433424447476864,0.05922719192914665
1768580188592246500,7.36124658203125,-0.3648457040607929,-0.20560265208780765,0.08817074314504861
1768580188602219500,7.371219482421875,-0.06195595930591225,-0.20890344719886778,0.0799399442858994
1768580188612193500,7.381193603515625,0.02640285375714302,-0.2144452992349863,0.03294453048557043
1768580188622166500,7.39116650390625,0.19176891865506768,-0.164430099222064,0.01263590195029974
1768580188632140500,7.401140625,0.309918328217417,-0.10424538737237453,-0.035076793273910875
1768580188642113800,7.41111376953125,0.18879457901939747,-0.06022913551330566,-0.05844546696692705
1768580188652091000,7.4210908203125,0.04198854542374611,-0.007689385458827018,-0.06849632086008786
1768580188662063900,7.43106396484375,-0.07473360781446099,-0.02584814248383045,-0.07164543254077434
1768580188672036900,7.441036865234375,-0.1498845642581582,-0.07856967884600162,-0.027916801984049378
1768580188682011000,7.451010986328125,-0.2501953886605799,-0.1064250694990158,-0.020411394790001213
1768580188691984000,7.46098388671875,-0.6715713737167418,-0.18533786269426344,-0.07751333819348365
1768580188701958000,7.4709580078125,-0.8450669690564274,-0.2896785271346569,-0.006365552976541221
1768580188711930600,7.4809306640625,-0.7896857119657099,-0.3536450956106186,0.10436773511040955
1768580188721904600,7.490904541015625,-0.719089496216923,-0.4461965380579233,0.08472480394225568
1768580188731878000,7.5008779296875,-0.6307552330732346,-0.5178314492046833,0.011246456885896622
1768580188741851000,7.510850830078125,-0.270937732437998,-0.48070144972801204,0.04482292859945446
1768580188751825000,7.520824951171875,0.024748656809329986,-0.42825522317588327,0.09963153690136968
1768580188761798000,7.5307978515625,-0.08086129691451788,-0.38503333656489847,0.08682805983182042
1768580188771772000,7.54077197265625,-0.23318828588873147,-0.30672026282846926,0.021827143339440226
1768580188781744600,7.55074462890625,-0.37564080044999715,-0.2758060691267252,-0.007087729771248996
1768580188791718700,7.56071875,-0.4068241664819419,-0.2656809809535742,0.028405279620736835
1768580188801691600,7.570691650390625,-0.42435909252017734,-0.2528045482456684,-0.03781118667386472
1768580188811665000,7.580664794921875,-0.5221507737085223,-0.3144675159543753,-0.0297855915306136
1768580188821639000,7.590638916015625,-1.0244413933016359,-0.3727063544332981,0.032742176313884555
1768580188831612000,7.60061181640625,-1.5904618500053882,-0.44065176341235635,-0.07607055550664663
1768580188841586000,7.6105859375,-1.4560931270480155,-0.4962286892056465,-0.02081347278486937
1768580188851559000,7.620558837890625,-0.887891965304315,-0.43453474183678625,0.0933566944155842
1768580188861533000,7.630532958984375,-0.05996493161916733,-0.2775450217485428,0.052320225552283224
1768580188871505700,7.640505615234375,0.20851357109844684,-0.2350274840146303,0.03185965785831213
1768580188881479000,7.65047900390625,0.3853562849089503,-0.14184241983890533,-0.03195106246881187
1768580188891452700,7.66045263671875,0.7985708830803633,-0.05127659825086593,-0.07714655070770532
1768580188901426000,7.670426025390625,0.6480170412585139,-0.11315642358064651,-0.028129312223568556
1768580188911400000,7.68039990234375,0.2908741666600108,-0.1997743843257427,0.05520590052381157
1768580188921373000,7.690373046875,0.2842190926849842,-0.2177870108783245,0.19349482913222163
1768580188931347000,7.700346923828125,0.24619857410937546,-0.22360183463692665,0.22736768997646867
1768580188941320000,7.71031982421875,-0.12986936571151017,-0.17859248008728026,0.15160894036535172
1768580188951292700,7.720292724609375,-0.008517360715568065,-0.076771104991436,0.13425682354811577
1768580188961266700,7.7302666015625,0.30332126803994175,-0.11083587167859077,0.12224204917084425
1768580188971239700,7.74023974609375,0.49713791300505394,-0.03410509869754314,0.05685297361109405
1768580188981213700,7.750213623046875,0.7312672791361808,0.004025602254271507,-0.020306363512948154
1768580188991187000,7.76018701171875,0.6315139424860478,-0.020624270355701444,-0.10156729073692113
1768580189001161000,7.770160888671875,0.6352300403997302,-0.026219898405671117,-0.1441253431443125
1768580189011134000,7.780134033203125,0.822538326384127,-0.060447746700048446,-0.10996241331230848
1768580189021106700,7.790106689453125,0.8867501017928123,-0.02041442699730396,-0.131682223819755
1768580189031080700,7.800080810546875,0.7618532637968659,0.04105915561914444,-0.16043401532322168
1768580189041053700,7.8100537109375,0.6672980803117156,0.0643143590003252,-0.1833541415311396
1768580189051027700,7.82002783203125,0.5797250107988715,0.16056699405312538,-0.2614004906227812
1768580189061000700,7.830000732421875,0.4913014619365334,0.23011808466315267,-0.29862317335158584
1768580189070974700,7.839974609375,0.3701844347402453,0.22028175030350683,-0.27736403915844854
1768580189080948000,7.849947998046875,0.3018713614925742,0.1378355222851038,-0.3032647155471146
1768580189090922000,7.859921875,0.40503742919564245,0.10017536145448684,-0.2658377424178645
1768580189100895000,7.86989501953125,0.12703531132936477,0.009627075523138046,-0.19302743081618098
1768580189110867700,7.87986767578125,-0.07067395716011524,-0.07968202400207519,-0.1724474014610052
1768580189120841700,7.889841796875,0.3360182535052299,-0.06515548599958419,-0.06149173932764679
1768580189130814700,7.899814697265625,0.5303004701554775,-0.03347556862235069,-0.027596191727556285
1768580189140788700,7.909788818359375,0.5676292070746422,-0.0068622869849205015,-0.01941474843546748
1768580189150761700,7.91976171875,0.7616931047990918,-0.01523965470790863,-0.021274587490595877
1768580189160735700,7.92973583984375,0.5675438668787479,-0.027234043884277342,-0.11438355422280728
1768580189170709000,7.939708984375,0.5055538591727614,0.0017208324432373045,-0.174803316937387
1768580189180683000,7.94968310546875,0.6201601893007755,0.09576105214357375,-0.19628018553443252
1768580189190656000,7.959656005859375,0.5869619763150811,0.19998539672791957,-0.27813776347730307
1768580189200628700,7.969628662109375,0.6855246418759227,0.16579729592204093,-0.26638313787356016
1768580189210602800,7.979602783203125,0.6520347524672746,0.14011749574244023,-0.15488449143730104
1768580189220575700,7.98957568359375,0.7198980361208319,0.19553309349417686,-0.09396014020144938
1768580189230549800,7.9995498046875,0.5960717499658466,0.26493746910989285,-0.11250267237965017
1768580189240522800,8.009522705078124,0.40379152078777547,0.19843115302324293,-0.23640750366356222
1768580189250496800,8.019496826171874,0.13070961592793465,0.14268822301328182,-0.2414597090192139
1768580189260470000,8.029469970703126,-0.21543986323028802,0.15178922883570192,-0.2836055273639038
1768580189270444000,8.039444091796875,-0.07282675127983093,0.09117781600654125,-0.27042324357721953
1768580189280416800,8.049416748046875,0.014315233339369297,0.10883096159696579,-0.2511134533535689
1768580189290389800,8.0593896484375,-0.09308364962786436,0.1737754351943731,-0.32203389608804134
1768580189300363800,8.06936376953125,0.10793810441046953,0.07394435713291168,-0.2323623564586043
1768580189310336800,8.079336669921876,0.20811668073534964,-0.013246435064077376,-0.1426705412261188
1768580189320310800,8.089310791015626,0.26156799267679454,-0.01026478890478611,-0.06717577631343155
1768580189330283800,8.09928369140625,0.47729631745964285,0.009043722677230834,0.026553185480646786
1768580189340257800,8.1092578125,0.32942820759043095,0.09487316339313984,0.02333506368435919
1768580189350231000,8.11923095703125,0.0009529168106615543,0.12103577865362167,-0.058470016886293885
1768580189360205000,8.129205078125,-0.17589096604362128,0.18634031773507595,0.03268544115796685
1768580189370177800,8.139177734375,-0.1026560723543167,0.25408406666219235,0.10136362139098345
1768580189380150800,8.14915087890625,0.09376900154352187,0.23311142126023768,0.0775933080945164
1768580189390124800,8.159124755859375,0.07147402149662375,0.2456412324875593,0.09756035665050149
1768580189400097800,8.169097900390625,0.2351004031203687,0.11889876662492752,0.0719415659431368
1768580189410071800,8.17907177734375,0.3092179248631,0.04804243863523006,-0.024267156902700662
1768580189420044800,8.189044921875,0.28648016948476435,0.12647183222770692,-0.11531659728921949
1768580189430018800,8.199018798828124,0.1927566145181656,0.12964637061059475,-0.16470803938061
1768580189439991800,8.20899169921875,-0.4905518856782466,0.03814882113039493,-0.2379647795755416
1768580189449965800,8.2189658203125,-0.5378220978319644,-0.004095744881033897,-0.17941512158177791
1768580189459938800,8.228938720703125,-0.1921499538619071,0.13634323790073394,-0.14653832257017493
1768580189469912800,8.238912841796875,-0.033141222101449964,0.16994506325125694,-0.14709895212762056
1768580189479885800,8.2488857421875,0.06347089391350746,0.06379354999661445,-0.0796746444132179
1768580189489858800,8.25885888671875,0.29274609801173207,0.02629705529510975,-0.06788447257205843
1768580189499832800,8.268832763671876,0.39355621370580046,0.07563128730654715,-0.03923340149670839
1768580189509805800,8.278805908203125,0.30325576505567875,-0.08026888397932053,0.10281557376496493
1768580189519779800,8.28877978515625,0.2035293164124712,-0.2336637944459915,0.12987316510379313
1768580189529752800,8.2987529296875,-0.16494623205065725,-0.21912907313704488,-0.023726474154740572
1768580189539726800,8.308726806640625,-0.6254372529208659,-0.2507446931064129,0.01702113129720092
1768580189549699800,8.318699951171874,-0.5177788422346115,-0.2449929977118969,0.07602686249539256
1768580189559673900,8.328673828125,-0.38208559267520903,-0.14934768090248107,0.053896352295204994
1768580189569646800,8.338646728515625,-0.46154783644676206,-0.12553659720420837,0.012402166259661316
1768580189579620900,8.348620849609375,-0.23474048376679418,-0.20715864935815334,0.0868717893756926
1768580189589593900,8.35859375,0.11401450171470641,-0.17910335221886634,0.09603110125660896
1768580189599566800,8.36856689453125,0.27240532077252866,-0.07755436432361602,0.1400957953672856
1768580189609540900,8.378540771484374,0.5586445211082697,-0.07049450893998145,0.046543213053420185
1768580189619513900,8.388513916015626,0.8052595670640468,0.028125439766049382,-0.014499065473675727
1768580189629487900,8.39848779296875,0.9030413113802671,-0.07188567103743553,0.10948752580955624
1768580189639460900,8.4084609375,1.016291842985153,-0.06885784764885902,0.12550013765133916
1768580189649435000,8.418434814453125,0.8626140239238739,-0.007437456524372101,0.07612995754368602
1768580189659404300,8.428404296875,0.6727712510257959,0.03413958548903465,-0.009046718351915478
1768580189669378300,8.43837841796875,0.3690718703884631,0.22341361858844755,-0.12125044431760906
1768580189679351300,8.448351318359375,0.2971446252316236,0.3544955749601125,-0.37104602000564335
1768580189689324000,8.458323974609375,0.2838607807666063,0.4597878410369158,-0.3519845419872552
1768580189699298000,8.468298095703124,-0.1527232948154211,0.2435638416916132,0.044842254354432225
1768580189709271300,8.478271240234376,-0.3860034967713058,-0.018356909945607184,0.23528993434309958
1768580189719245300,8.488245361328126,-0.6786012723535298,-0.07985270439386367,0.15638459380194544
1768580189729218300,8.49821826171875,-0.7903940063655376,-0.188581959182024,0.10476122794002293
1768580189739192300,8.5081923828125,-0.39585751291811466,-0.22307751850187776,0.12525025454349814
1768580189749165300,8.518165283203125,-0.045671617850661275,-0.20215163485109805,0.05942812132872641
1768580189759139300,8.528139404296875,0.05237842201292515,-0.19234218849837778,0.030183614404872057
1768580189769112300,8.5381123046875,0.0168704707801342,-0.09269581935405731,-0.08735869610980153
1768580189779086300,8.54808642578125,-0.3969643051162362,-0.062437459212541575,-0.20786972023695707
1768580189789059000,8.55805908203125,-0.595973842549324,-0.16219138038456438,-0.11956154138259589
1768580189799032300,8.5680322265625,-0.4208598522275686,-0.09264613499343395,0.020137948143482208
1768580189809006300,8.57800634765625,-0.4406304283633828,0.07472410933375358,0.08123502559773624
1768580189818979300,8.587979248046874,-0.5265095534399151,-0.08833236344754695,-0.03907287717275321
1768580189828953300,8.597953369140624,-0.6813683989793062,-0.31990415405035016,-0.05001556533910334
1768580189838926300,8.60792626953125,-0.6099605745866894,-0.3454559439361095,-0.05088949862942099
1768580189848900400,8.617900390625,-0.17201923917680978,-0.20964052930176258,-0.10236012161504476
1768580189858873000,8.627873046875,0.12941665350794793,-0.1197100830078125,-0.13466113003268837
1768580189868847000,8.63784716796875,-0.1900233901619911,-0.2724164266884327,-0.05710303938202559
1768580189878820000,8.647820068359374,-0.3248357652336359,-0.2889431985974312,-0.014223098076507448
1768580189888794000,8.657794189453124,-0.18112959734946488,-0.20622692146599292,0.05313322243560105
1768580189898767400,8.667767333984376,-0.23558424111455678,-0.2795528544396162,0.1416013410920277
1768580189908740400,8.677740234375,-0.10613222403228283,-0.2809013464391231,0.2814735203038901
1768580189918714400,8.68771435546875,-0.05921674360036849,-0.0639355888158083,0.2800909799043089
1768580189928687400,8.697687255859375,-0.1852875938117504,-0.04462824627757072,0.1399229595510289
1768580189938661400,8.707661376953125,-0.16838322076201437,-0.09574351648688316,-0.02431925241611898
1768580189948634000,8.717634033203124,-0.031790392014384265,0.01131225213110447,-0.19913316381275653
1768580189958608100,8.727608154296876,0.11044833366572857,0.10442483559250831,-0.24116021461598575
1768580189968581000,8.7375810546875,0.2928662172600627,0.1512947233170271,-0.17169658309370278
1768580189978555100,8.74755517578125,0.3422448729351163,0.14213818791508673,-0.1276518723251298
1768580189988528000,8.757528076171875,0.21680179923325776,-0.02432663200497627,0.00020202537812292576
1768580189998501400,8.76750146484375,0.1578060049071908,-0.0953320130765438,0.10050769868139177
1768580190008475400,8.777475341796874,0.0865808436051011,-0.05170213018655777,0.10860909900721162
1768580190018448400,8.787448486328126,-0.13528963719457388,-0.011963409516215323,0.06732888451591133
1768580190028422400,8.79742236328125,-0.23154928651005027,-0.015506781211495398,0.06370788100715727
1768580190038395100,8.80739501953125,-0.196383280582726,0.020568156254291533,0.08992065555229782
1768580190048369200,8.817369140625,-0.31199732644855976,-0.013582535150647163,0.038330899699032306
1768580190058342100,8.827342041015624,-0.4700292490661144,-0.14685118791162965,-0.032477862821891905
1768580190068316200,8.837316162109374,-0.4694529104828834,-0.24004034374058245,-0.03201671158354729
1768580190078289200,8.8472890625,-0.2231248647749424,-0.2000578774422407,-0.013088212295062839
1768580190088263200,8.85726318359375,-0.028936171627044677,-0.2026765355080366,0.03458974040932953
1768580190098236400,8.867236328125,0.056387657654285425,-0.1694546493858099,-0.003839797358587384
1768580190108209200,8.877209228515625,-0.130319155305624,-0.14030629631280897,-0.08017112269327044
1768580190118183200,8.88718310546875,-0.5226853189766407,-0.13516425724923609,-0.05443827715218067
1768580190128156200,8.89715625,-0.5591308433204889,-0.1556722077488899,0.06853552035931497
1768580190138130200,8.907130126953126,-0.38396395376771686,-0.1625187126427889,0.10034900098834186
1768580190148103200,8.917103271484375,-0.15140519795417784,-0.10880991880893706,0.08206183181069791
1768580190158077200,8.9270771484375,0.024736966371536252,-0.08206745783388614,0.023350809242762623
1768580190168050200,8.93705029296875,0.10889408996105193,-0.1409025086402893,0.037482977632805704
1768580190178024200,8.947024169921875,0.26033757409900427,-0.1942325322896242,0.05744092956688255
1768580190187997400,8.95699755859375,0.19650339983105658,-0.08548632636666298,-0.08815276909694075
1768580190197970200,8.96697021484375,0.14149346027076243,0.025002339309453964,-0.16340820882841944
1768580190207944200,8.976944091796875,0.028747955578565597,0.009727028766274452,-0.1119810596583411
1768580190217917200,8.986917236328125,-0.21675240713357924,-0.09423720357716082,-0.06872662248462438
1768580190227891200,8.99689111328125,-0.36919279335439203,-0.08826455890834331,0.04107910242862999
1768580190237864200,9.0068642578125,-0.28099779255092144,-0.20277122805416584,0.028216917441785335
1768580190247838200,9.016838134765624,-0.08833177892565727,-0.1817185031533241,-0.09860350902788341
1768580190257811200,9.026811279296876,0.036084874337911604,-0.1133487312823534,-0.08330266218464821
1768580190267785200,9.03678515625,0.03917816417813301,-0.2355412787556648,0.04405099437888711
1768580190277758500,9.046758544921875,-0.01610883875787258,-0.2798386856436729,0.1365616298917681
1768580190287731200,9.056731201171875,-0.33796997209489343,-0.25428338862657546,0.051920887503772974
1768580190297705200,9.066705322265625,-0.6085229429990053,-0.2861801636248827,-0.04447170400898903
1768580190307678200,9.07667822265625,-0.5992734686166048,-0.21193594676256178,-0.05910488072372973
1768580190317652200,9.08665234375,-0.35588702931851146,-0.09446692067980765,-0.02891027000080794
1768580190327625200,9.096625244140625,-0.21479835045635698,-0.06758885062634945,-0.0400078199353069
1768580190337599200,9.10659912109375,-0.23918664952069518,-0.12916647813916204,-0.0004193579232320189
1768580190347572200,9.116572265625,-0.2973381019771099,-0.1390805539101362,0.005682137289643287
1768580190357546200,9.126546142578125,-0.3740808576568961,-0.11164835710525511,0.0179202355613932
1768580190367519200,9.136519287109374,-0.41040158657729625,-0.14693360549807546,0.00852664000056684
1768580190377493200,9.1464931640625,-0.31106969020962716,-0.12774199829399585,-0.019116276945546268
1768580190387466200,9.15646630859375,-0.21879063496291637,-0.1282885262608528,0.0071541095383465285
1768580190397439200,9.166439208984375,-0.3665253277108073,-0.28997078807950016,0.0887653845699504
1768580190407413200,9.176413330078125,-0.6753513306468725,-0.4586585447460413,0.05777962346933782
1768580190417386200,9.18638623046875,-0.9874924494802951,-0.43720542235076426,0.005126366570405661
1768580190427360300,9.1963603515625,-0.8702899653792381,-0.3802484403759241,0.09127462744452058
1768580190437333200,9.206333251953126,-0.8332727786272763,-0.4496691826045513,0.16019837993644176
1768580190447307300,9.216307373046876,-0.8412877427786588,-0.5543827720105647,0.18342527053859084
1768580190457280300,9.2262802734375,-0.6898334449857473,-0.472864764752984,0.16579362439392134
1768580190467254300,9.236254150390625,-0.6845704098910093,-0.44786651709675784,0.14394940205551682
1768580190477227300,9.246227294921875,-0.5296241783291101,-0.34520576856732366,0.22760464053750037
1768580190487200300,9.2562001953125,-0.16513357131630182,-0.22755846330821514,0.2646446236431598
1768580190497174300,9.26617431640625,-0.14459960959255694,-0.2246966441363096,0.24020316961947827
1768580190507147300,9.276147216796875,-0.10090250668525695,-0.29727848074436186,0.228076550631877
1768580190517121300,9.286121337890625,-0.06386164679676294,-0.20206571013331412,0.13872890006140806
1768580190527094300,9.29609423828125,-0.2233113272577524,-0.02824059057831764,0.08288271060637198
1768580190537068000,9.306068115234375,-0.3134165455967188,-0.094809450507164,0.04744306623628363
1768580190547041300,9.316041259765624,-0.2144324397534132,-0.11631868700385092,0.05757171633969992
1768580190557015300,9.326015380859374,0.019720599514245984,-0.017998598027229307,0.08504377023093401
1768580190566988300,9.33598828125,0.07061404366642236,0.019711831685900686,0.04654007124826312
1768580190576962300,9.34596240234375,0.12076456049680709,-0.01644143171310425,0.016428462633676828
1768580190586935300,9.355935302734375,0.19951602565050125,0.030562311524152754,0.0939892201654613
1768580190596908300,9.365908203125,0.22349954330623148,0.03901917422413826,0.13127039161585272
1768580190606882300,9.37588232421875,0.10736848782896995,0.05626841518878936,0.0933040143802762
1768580190616855000,9.38585498046875,0.014321370819211005,0.14190204107165336,0.11468250063676387
1768580190626829000,9.3958291015625,-0.045125674405694004,0.1599076533615589,0.1518308760203421
1768580190636802300,9.40580224609375,-0.061867550370097155,0.14724807827472686,0.129194535189867
1768580190646776300,9.4157763671875,-0.03724924194216728,0.12470189994573593,0.16464542247317732
1768580190656749000,9.4257490234375,-0.09990852721184491,0.049399113941192625,0.18466697769537568
1768580190666723000,9.43572314453125,-0.19931085846722124,-0.0009475099831819534,0.25254721248373385
1768580190676696000,9.445696044921876,-0.17693039209395647,0.029762685579061508,0.2488601214688271
1768580190686669000,9.4556689453125,-0.11369681406766176,-0.01606266152858734,0.21633418172150848
1768580190696643000,9.46564306640625,-0.21509061140120028,-0.03551905714869499,0.21413206856735048
1768580190706616000,9.475615966796875,-0.19651479800790547,-0.011194178709387778,0.2542673142746091
1768580190716590000,9.485590087890625,-0.022606676344573497,-0.034304420661926266,0.25699089401960373
1768580190726563300,9.495563232421874,0.0952469651415944,-0.090299864128232,0.18627192867398262
1768580190736537300,9.505537353515624,0.0645189416617155,-0.07982347829937934,0.14853841034621
1768580190746510000,9.515510009765626,-0.06060965926349163,-0.1121025306135416,0.11335443037077785
1768580190756484000,9.525484130859375,-0.19389613994210958,-0.1038064114332199,0.1024663950011134
1768580190766457000,9.53545703125,-0.040053777968883514,-0.12085925304293632,0.31548005399778484
1768580190776430000,9.54543017578125,-0.011117606341838835,-0.11961889759302138,0.3323334275126457
1768580190786404000,9.555404052734374,-0.09839256969094276,-0.1291606329202652,0.26090236837491393
1768580190796377000,9.565377197265626,-0.05425123014748096,-0.1267243456840515,0.21744711139947176
1768580190806351000,9.57535107421875,-0.05318389317691326,-0.06440729798078537,0.24332491836920378
1768580190816324400,9.585324462890625,0.027891338749229905,-0.038353403791785236,0.27424831829071045
1768580190826298000,9.595298095703125,0.06452040296643972,-0.0783130737364292,0.29243673980161544
1768580190836271000,9.60527099609375,0.06818155582249164,-0.1198667348742485,0.3137159669347107
1768580190846245000,9.6152451171875,0.11030191093236208,-0.22905776195526123,0.3160807963699102
1768580190856218000,9.625218017578124,0.21808803965151308,-0.30551322512626644,0.2979254003457725
1768580190866191000,9.635191162109376,0.18210837925374507,-0.2250806750178337,0.3080255002081394
1768580190876165000,9.6451650390625,0.0557940756753087,-0.18779928437173365,0.4278855130806565
1768580190886138000,9.65513818359375,-0.05240501775890589,-0.20685762058496474,0.3858709564328193
1768580190896112000,9.665112060546875,-0.034602234564721585,-0.1350116970360279,0.2797013229995966
1768580190906085000,9.675085205078124,-0.03697217856645584,-0.08766600849330425,0.3054717240720987
1768580190916059100,9.68505908203125,0.0208157012745738,-0.045567572954297066,0.22906740656644103
1768580190926032100,9.6950322265625,0.10625409684628248,0.028267478585243224,0.09615151276588439
1768580190936006100,9.705006103515625,0.06814210059493779,-0.09361059611141681,0.22080489739477632
1768580190945979100,9.714979248046875,0.0652709290727973,-0.2146662485092878,0.37169337799847124
1768580190955952000,9.7249521484375,0.12226473592668771,-0.20623568929433822,0.2470034607514739
1768580190965926100,9.734926025390624,-0.20978578299134967,-0.07843290072381497,0.10936638364791869
1768580190975899100,9.744899169921876,-0.25889760442376136,-0.20926059007346628,0.22558394836485385
1768580190985873200,9.754873046875,0.13459697875529528,-0.26905308773517606,0.344589682495594
1768580190995846100,9.76484619140625,-0.1322612292841077,-0.08202946391105652,0.179098383782804
1768580191005820200,9.774820068359375,0.08298048102557659,0.015261282017827033,0.09065817604660988
1768580191015793200,9.784793212890625,0.1924550012230873,0.06091828682124614,-0.07277560561448335
1768580191025767200,9.79476708984375,0.22853139999359845,0.13113222525417803,-0.2509405079394579
1768580191035740200,9.804740234375,0.18316314900368452,0.1724772120773792,-0.21197364842444658
1768580191045713200,9.814713134765626,-0.0206523274064064,0.16106968287825582,-0.026105039854347704
1768580191055687200,9.824687255859375,-0.17811843283474443,-0.006873977422714233,0.11976882745772599
1768580191065660200,9.83466015625,-0.2336158636510372,-0.11979133155047893,0.2377615851536393
1768580191075634000,9.844634033203125,-0.386912282179296,-0.1989174752354622,0.34666444294303655
1768580191085607200,9.854607177734374,-0.3228422533288598,-0.2644201672375202,0.37822044167965646
1768580191095581000,9.864580810546874,-0.13779548253566026,-0.2006768861234188,0.39414603282511235
1768580191105554200,9.87455419921875,0.06993161436021328,-0.23636603914201257,0.41777211534529923
1768580191115528200,9.884528076171875,0.34482875194847584,-0.16133447129428385,0.40353199306875465
1768580191125501200,9.894501220703125,0.40861821029186246,-0.16833762805461883,0.3104591570958495
1768580191135474200,9.90447412109375,0.4268973788261413,-0.3091068657040596,0.3046256286367774
1768580191145448200,9.9144482421875,0.5560735015764832,-0.3110702747315168,0.34882249775975943
1768580191155421000,9.9244208984375,0.3277048909291625,-0.14384557635486125,0.3303811244010925
1768580191165395000,9.93439501953125,0.10586509752869605,0.004389174869656563,0.28529285939633847
1768580191175368200,9.9443681640625,0.04744096561074257,-0.01859188774526119,0.30878333283811804
1768580191185342000,9.954342041015625,-0.12524492078125476,-0.11918401330709456,0.34497459015995263
1768580191195315200,9.964315185546875,-0.12521306433826684,-0.20911387507915496,0.33012948772758244
1768580191205289200,9.974289306640625,0.15124854608774185,-0.16042553975582122,0.21088994484096765
1768580191215262200,9.98426220703125,0.2486035894244909,-0.12331892115473747,0.17106237684339284
1768580191225235200,9.994235107421876,0.15861176833212376,-0.17438509152531623,0.15548077683001757
1768580191235209200,10.004209228515625,0.03725800977051258,-0.16227438249289988,0.16132833381444214
1768580191245182000,10.014181884765625,-0.06971124960780144,-0.09100596657097339,0.2324815989241004
1768580191255156000,10.024156005859375,0.006971008056402206,-0.08260580249428749,0.14989157852083443
1768580191265129200,10.034129150390624,0.11774404363185166,-0.15397884783446789,0.12792173877507448
1768580191275103000,10.04410302734375,0.06647007572948932,-0.20456921738684175,0.22928631001412866
1768580191285076200,10.054076171875,0.02735387087166309,-0.12362521062493323,0.20205285065174103
1768580191295049200,10.06404931640625,-0.056983285459876055,-0.057067456611990926,0.1423641056254506
1768580191305023200,10.074023193359375,-0.14385346740037203,-0.12808452812135218,0.13332242877483366
1768580191314996000,10.083995849609375,-0.1766647268950939,-0.22406652953922748,0.06531535273641348
1768580191324970000,10.093969970703125,-0.12999533017873763,-0.25883213797211646,0.0018117255970835685
1768580191334943000,10.10394287109375,-0.2003954388335347,-0.2963841622531414,0.016848843470215796
1768580191344917000,10.1139169921875,-0.30698709707111116,-0.2925532057881355,0.021577041035890577
1768580191354890000,10.123889892578125,-0.2993175853565335,-0.21954408367872236,0.041539048090577124
1768580191364864000,10.133864013671875,-0.18478782759606838,-0.1514560513585806,0.022748422902822495
1768580191374837200,10.143837158203125,-0.15916794091016054,-0.08961597351729869,-0.018621698361635207
1768580191384810200,10.153810302734374,-0.22614567390084264,-0.09752747729420662,-0.0211012402176857
1768580191394784300,10.1637841796875,-0.3082847356662154,-0.10677110645771026,-0.031662966242432596
1768580191404757000,10.173757080078126,-0.28905864167064427,-0.09961012878715991,-0.018713468298316
1768580191414731000,10.18373095703125,-0.29198417372852564,-0.14068623554110526,0.06738894414007664
1768580191424704000,10.1937041015625,-0.2780003643006086,-0.21602876903414725,0.05741232452690601
1768580191434678000,10.203677978515625,-0.18476006280630825,-0.23602292479276657,0.0486070867806673
1768580191444651000,10.213651123046875,-0.07042641213983297,-0.20815642822384833,-0.022854221364855765
1768580191454625000,10.223625,-0.035955110478401185,-0.20755787780880927,-0.1441916133135557
1768580191464598300,10.233598388671876,-0.13708265809118747,-0.23432313513755798,-0.048479661008715626
1768580191474571300,10.2435712890625,-0.1697153461486101,-0.2904232080221176,0.0887310073763132
1768580191484545300,10.253545166015625,-0.2130485841795802,-0.22302315796613692,0.10888766022026539
1768580191494518000,10.26351806640625,-0.26303981879502536,-0.18134733175337314,0.09676876788139342
1768580191504492000,10.273491943359375,-0.24385727168023585,-0.18883622620403764,0.1204898352086544
1768580191514465000,10.283465087890624,-0.1364274090528488,-0.13791384821832178,0.14158113855421542
1768580191524439000,10.29343896484375,-0.19277064304351804,-0.10247603961229323,0.16210428662300108
1768580191534412000,10.303412109375,-0.46195437142103907,-0.1653752711176872,0.22224223672151563
1768580191544385300,10.31338525390625,-0.5779585856482387,-0.18944120635986328,0.2510141576975584
1768580191554359300,10.323359375,-0.4297042529404163,-0.16782967853248118,0.22429507759809492
1768580191564332000,10.33333203125,-0.2422407763943076,-0.2087321822851896,0.13009586794376374
1768580191574306000,10.34330615234375,-0.09470160621851682,-0.11446283000409603,0.07529343365430831
1768580191584279000,10.353279052734376,-0.1911576548889279,-0.15271160437762737,0.09285130217671393
1768580191594253000,10.363253173828125,-0.25247078624665736,-0.223729844930768,0.09703940151631832
1768580191604226000,10.37322607421875,-0.33026685037165876,-0.11451368340849875,0.06687456487715245
1768580191614200000,10.383199951171875,-0.4553577496349811,-0.08899170413911342,0.08483107732832432
1768580191624173000,10.393173095703125,-0.4340928432881832,-0.12416940050423145,0.10841127488017081
1768580191634146300,10.403146240234374,-0.3598202771142125,-0.06584054565429687,0.09103110101222991
1768580191644120300,10.413120361328126,-0.4025079107180238,0.0013648586124181746,0.06244388895332813
1768580191654092500,10.423092529296875,-0.5126321269959211,-0.14538286892473698,0.1491249780625105
1768580191664066600,10.433066650390625,-0.4539297626584768,-0.1907774233996868,0.21662030518651007
1768580191674039600,10.44303955078125,-0.2692179229080677,-0.1169125612437725,0.11473580172657966
1768580191684013600,10.453013671875,-0.12599632367044686,-0.08855214367806911,0.01109480998814106
1768580191693986600,10.462986572265624,-0.07693769372999668,-0.013899930536746978,-0.10039864881634712
1768580191703959600,10.47295947265625,-0.034225802467763425,-0.0171013569265604,-0.064797758603096
1768580191713933600,10.48293359375,-0.07163695697337388,-0.07722469397783278,0.06524491784870624
1768580191723906600,10.492906494140625,-0.13238748601227998,-0.027813889598846436,0.18828619110584258
1768580191733880600,10.502880615234375,-0.08899667257517575,0.10759703588783741,0.19247429044544695
1768580191743853600,10.512853515625,-0.008072539557516575,0.18327625398933886,0.1022773021697998
1768580191753827600,10.52282763671875,-0.0023576690420508382,0.26555180161595343,0.029414310532808303
1768580191763800600,10.532800537109376,-0.03006137626469135,0.2140659445285797,0.047771220478415484
1768580191773773600,10.542773681640625,-0.12268062325119972,0.119343587782979,0.07245441083610057
1768580191783747600,10.55274755859375,-0.23156126920878886,0.1088648638665676,0.11879413720667362
1768580191793720600,10.562720458984375,-0.2529933488160372,0.07899579530358314,0.12399170584976672
1768580191803694600,10.572694580078124,-0.19465601839870214,0.040541269224882125,0.06574585310816765
1768580191813667600,10.58266748046875,-0.235928816768527,0.1648445252418518,-0.06636603083312512
1768580191823641600,10.5926416015625,-0.3745587043017149,0.31634909191727634,-0.19153496376872062
1768580191833614600,10.602614501953125,-0.4862929861247539,0.30433716708421704,-0.25621406442821026
1768580191843588600,10.612588623046875,-0.531364299994707,0.2295253794670105,-0.2258691950470209
1768580191853561600,10.6225615234375,-0.7015458023503423,0.08965279839634895,-0.08807049764096736
1768580191863534600,10.63253466796875,-0.7341390351802111,0.03489244968295097,0.025028058272600174
1768580191873508600,10.642508544921874,-0.5164233359724283,0.11927987489700316,0.07191898878514766
1768580191883481600,10.652481689453126,-0.27469664658010007,0.16003157200217247,0.04728139113485813
1768580191893455600,10.66245556640625,-0.23552184340283272,0.11263619909882545,0.03850888661444187
1768580191903428600,10.6724287109375,-0.2601886671476066,0.10885375795066356,-0.024498481440544128
1768580191913402600,10.682402587890625,-0.2992258154198527,0.1518733999878168,-0.0789145467609167
1768580191923375600,10.692375732421874,-0.44424408881589766,0.13896248048841953,-0.05467968469262123
1768580191933348600,10.7023486328125,-0.6281621478401124,0.06393909594714642,0.012213584885001181
1768580191943322600,10.712322509765626,-0.6990262207448482,-0.051934769898653026,0.11129296779632568
1768580191953295400,10.72229541015625,-0.6596415742091835,-0.12044015084803103,0.16453355959653854
1768580191963269400,10.732269287109375,-0.5354717353135348,-0.10311842916905879,0.14916297198534012
1768580191973242600,10.74224267578125,-0.47886400516778227,-0.07601239557862281,0.15893910059034824
1768580191983216600,10.752216552734374,-0.38714462963044644,-0.072379007512331,0.12402560811936855
1768580191993189600,10.762189697265624,-0.4019757035374641,0.004057166436314583,0.004166472029685974
1768580192003162600,10.77216259765625,-0.6099852706365287,0.0932972923785448,-0.1697767209470272
1768580192013136600,10.78213671875,-0.8217569667480885,0.10323182641565799,-0.20868600505590437
1768580192023109600,10.792109619140625,-0.8134590940020978,-0.02999941694438457,-0.059956163790822026
1768580192033083600,10.802083740234375,-0.6452642354190349,-0.09033259735405444,0.10256254885196685
1768580192043056400,10.812056396484374,-0.5205556134715676,-0.026184242570400237,0.13411620950102807
1768580192053030400,10.822030517578124,-0.4709472406938672,-0.04918400988578796,0.1214309154510498
1768580192063003600,10.832003662109376,-0.5174880425944924,-0.11556465376615524,0.16868132692575455
1768580192072976600,10.8419765625,-0.565458585037291,-0.19900281543135642,0.19849545043110847
1768580192082950700,10.85195068359375,-0.3693593820929527,-0.1937146458953619,0.09995967287719248
1768580192092923600,10.861923583984375,-0.2968587940275669,-0.12712240509092806,-0.01407236449420452
1768580192102897700,10.871897705078124,-0.31549086765274403,-0.1955699183732271,0.021959902873635292
1768580192112870700,10.88187060546875,-0.3085825495690107,-0.14108312590420247,0.055796706023812294
1768580192122844700,10.8918447265625,-0.34258360337018967,0.04943476977646351,0.06518295852839946
1768580192132817400,10.9018173828125,-0.47061552452147004,0.06880933233201503,0.061117024263739585
1768580192142790700,10.911790771484375,-0.5135352133154869,0.0540536617487669,0.05432020373046398
1768580192152764700,10.9217646484375,-0.527426522154361,0.09055822280347346,0.07114391275942325
1768580192162737700,10.931737548828124,-0.5521269559077918,0.10636778635382652,0.08697451909780501
1768580192172711700,10.941711669921874,-0.5966767301216721,0.08199439259767533,0.0945394013941288
1768580192182684700,10.9516845703125,-0.5099098624251782,-0.020442484048008917,0.12973054176270962
1768580192192658700,10.96165869140625,-0.4755623332738876,0.008612345522642135,0.1591068583726883
1768580192202631400,10.97163134765625,-0.39084757580161095,-0.021703882285952568,0.14910978049337864
1768580192212604400,10.9816044921875,-0.3351566682398319,-0.08241817096769809,0.06698913116753101
1768580192222578400,10.991578369140624,-0.3424753206901252,-0.05349310525655746,-0.008411854514479636
1768580192232551700,11.0015517578125,-0.29728841761648656,-0.07693535564243793,-0.07374328160285949
1768580192242525700,11.011525634765626,-0.3303757175736129,-0.06583528495728969,-0.14700725525617597
1768580192252498700,11.021498779296875,-0.3962435896262526,-0.12748422414064406,-0.165994864320755
1768580192262472700,11.03147265625,-0.42610301357805724,-0.13683014463484286,-0.16242694270610808
1768580192272445700,11.04144580078125,-0.32698505222201346,-0.08628010709285736,-0.1374257724404335
1768580192282419700,11.051419677734375,-0.2493831954948604,-0.0349088162958622,-0.14170096554160116
1768580192292392400,11.061392333984376,-0.19438202376291155,-0.029422493839263913,-0.1671095475643873
1768580192302365400,11.071365478515625,-0.33257015887796876,-0.00526069700717926,-0.14586743757128715
1768580192312339500,11.08133935546875,-0.44720819931849837,-0.04972995333075523,-0.08121873205006122
1768580192322312700,11.091312744140625,-0.3124392249971628,-0.05232639956474304,-0.04490940130650997
1768580192332286700,11.10128662109375,-0.2703067410580814,-0.02188800668120384,-0.03313011618554592
1768580192342259700,11.111259765625,-0.29678572879135606,-0.004106850796937942,-0.007867080113291739
1768580192352233700,11.121233642578124,-0.31679858925044535,0.009283376652002334,0.0005085340440273285
1768580192362206700,11.131206787109376,-0.2683507846847176,0.014044891965389251,-0.03150631437599659
1768580192372179500,11.141179443359375,-0.244742822343111,0.075333181142807,-0.05577858584523201
1768580192382153500,11.151153564453125,-0.2845592844247818,0.096404026222229,-0.048474984833598134
1768580192392126500,11.16112646484375,-0.3592904080212116,0.025681553745269772,0.019759762480854988
1768580192402100500,11.1711005859375,-0.38919045624434945,0.0695388156503439,0.029340660774707792
1768580192412073700,11.18107373046875,-0.331976576898992,0.11952186695933341,0.013232991060614586
1768580192422047500,11.191047607421876,-0.32475773156136273,0.09050795392096042,-0.015543606090545654
1768580192432020700,11.201020751953125,-0.2983162993595004,0.07701426609754562,-0.0501104770809412
1768580192441993500,11.210993408203125,-0.25596856523454187,0.1155535478502512,-0.07549801631569862
1768580192451967500,11.220967529296875,-0.2710682269498706,0.110490419241786,-0.007206570377945899
1768580192461940500,11.2309404296875,-0.15981339920684695,0.045001171243190766,0.08886018671393393
1768580192471914500,11.24091455078125,-0.06597659312412142,0.04189560644328594,0.18615560881793497
1768580192481887500,11.250887451171875,-0.13356018305346368,0.024671499919891357,0.26703999434709547
1768580192491861500,11.260861572265625,-0.14780366633087397,0.0046223991036415096,0.26192425876855846
1768580192501834800,11.270834716796875,-0.1075308387838304,0.08291559909582137,0.18770459182560442
1768580192511807700,11.280807861328125,-0.17765315341055393,0.16137831043601036,0.05517945090830326
1768580192521781800,11.29078173828125,-0.31740152357965706,0.1755588114798069,-0.11419044280350207
1768580192531754500,11.30075439453125,-0.3868380478993058,0.2798001071989536,-0.2523001058548689
1768580192541728500,11.310728515625,-0.36759178789854047,0.42680443984568117,-0.36437691750526424
1768580192551701500,11.320701416015625,-0.33477482931539415,0.5227729972600936,-0.4870744918912649
1768580192561675500,11.330675537109375,-0.31572847580090163,0.5171031349301338,-0.5894996780991554
1768580192571648500,11.3406484375,-0.25566198350340125,0.41741701829731465,-0.7027659917950629
1768580192581621800,11.350621826171874,-0.11645809547454118,0.2723147198796272,-0.7660451625287532
1768580192591595800,11.360595703125,0.02257218955308199,0.13822656742930411,-0.8226070077061652
1768580192601568800,11.37056884765625,0.1788059767074883,0.05646364549994468,-0.8516156600475311
1768580192611542500,11.38054248046875,0.3576227670699358,-0.017262100446224213,-0.8912252013802527
1768580192621515500,11.390515625,0.4576230642184615,-0.025970892080664634,-0.8681623057007789
1768580192631489500,11.400489501953125,0.29578853444755077,-0.047070963254570955,-0.7193728432029485
1768580192641462500,11.410462646484374,0.05248553564921021,-0.08597907831966876,-0.5453010554105043
1768580192651435500,11.420435546875,-0.1502107274726033,-0.0383984119772911,-0.42887832351028915
1768580192661409800,11.430409912109376,-0.3164969759553671,-0.03439677512049675,-0.3820119429171085
1768580192671382800,11.4403828125,-0.36197044088542457,-0.08050795343220234,-0.3965595237076282
1768580192681356800,11.450356689453125,-0.35043548591434953,-0.07671732897758483,-0.3838999486207962
1768580192691329800,11.460329833984375,-0.1287785017348826,-0.17766075219511984,-0.3374450714379549
1768580192701302800,11.470302734375,0.23004355812221763,-0.16357260560989378,-0.3143991268932819
1768580192711276800,11.48027685546875,0.4525491219550371,-0.03304945216476917,-0.3097235362976789
1768580192721249800,11.490249755859375,0.5283773931384086,-0.05777414357662201,-0.3431745550006628
1768580192731223800,11.500223876953125,0.5271574959546327,-0.030192309167981147,-0.4536807563334703
1768580192741196800,11.51019677734375,0.42627573979645966,0.05914426288604736,-0.5813216323405503
1768580192751170800,11.5201708984375,0.2941635635942221,0.023183891710638997,-0.5595733263909817
1768580192761143800,11.530143798828124,0.15441212468519805,0.04592705391645431,-0.4439595727860927
1768580192771116800,11.54011669921875,0.09647782211080193,0.03574468259811401,-0.35784254730045795
1768580192781090800,11.5500908203125,0.14526041158884762,0.0243254629611969,-0.2988157733142376
1768580192791063800,11.560063720703125,0.15382453405559063,0.0733902303814888,-0.2511743166953325
1768580192801037800,11.570037841796875,0.1818459289252758,0.06075754330158233,-0.252206582352519
1768580192811010800,11.5800107421875,0.2588328686244786,0.07019581825435162,-0.26931261545419694
1768580192820984800,11.58998486328125,0.33652751820161936,0.07045300788581371,-0.3265039907068014
1768580192830957800,11.599957763671876,0.4330342741459608,0.11194295613765716,-0.46495150741040703
1768580192840930800,11.609930908203125,0.5408921529270708,0.20731062504947184,-0.5786351697355508
1768580192850904800,11.61990478515625,0.5758652666307985,0.25515491076409813,-0.4955103118032217
1768580192860877800,11.6298779296875,0.631203853623569,0.27046120096743104,-0.3937035497546196
1768580192870851800,11.639851806640625,0.6922516120433807,0.30960955452919003,-0.4090472493588924
1768580192880824800,11.649824951171874,0.7225726621575653,0.2852612952142954,-0.4172434152960777
1768580192890798800,11.659798828125,0.6763046858489513,0.21546762802004812,-0.3852116157412529
1768580192900771800,11.669771728515625,0.5895894022092223,0.2252507708877325,-0.3123608990639448
1768580192910744800,11.679744873046875,0.5085761296033859,0.261871067276597,-0.22675942188501358
1768580192920718800,11.68971875,0.5323386979848146,0.3428518989175558,-0.2137391967922449
1768580192930691800,11.69969189453125,0.5554619455493987,0.44042087726593016,-0.28010347405970093
1768580192940665600,11.70966552734375,0.5354261426061392,0.488506570520997,-0.3079752313256264
1768580192950638800,11.719638916015626,0.5759685808748006,0.5036731599926948,-0.2556236973196268
1768580192960612900,11.72961279296875,0.5120312384933233,0.4672270511269569,-0.2014607299774885
1768580192970585900,11.7395859375,0.4964136903837323,0.4994125799387693,-0.17235738508999346
1768580192980558800,11.749558837890625,0.4856852294899523,0.5144464829415083,-0.21643559626936912
1768580192990532900,11.759532958984375,0.5015491535760462,0.526890369451046,-0.2796124756723642
1768580193000505900,11.769505859375,0.4467664469003677,0.5043383459031582,-0.359731722047925
1768580193010479900,11.77947998046875,0.38251404722034926,0.4452782541692257,-0.37432372650206086
1768580193020452900,11.789452880859375,0.4280642306484282,0.39042438195347784,-0.381175492092967
1768580193030426600,11.799426513671875,0.4684557161390781,0.4321007926881313,-0.41497196323275565
1768580193040400000,11.80939990234375,0.6044327510759234,0.46794484400749203,-0.40347324861884115
1768580193050372900,11.819372802734375,0.6310948402911424,0.42940263964533804,-0.367840794223547
1768580193060347000,11.829346923828124,0.5034729612454771,0.43882688607275483,-0.33330256480574605
1768580193070319900,11.83931982421875,0.4770972877562046,0.3720259709537029,-0.2750052741378546
1768580193080294000,11.8492939453125,0.6029052492477,0.32669805197417734,-0.24065993694365023
1768580193090267000,11.859266845703125,0.7089445342995226,0.4042278663784265,-0.2505126379162073
1768580193100241000,11.869240966796875,0.6677996000930666,0.3490869939148426,-0.3021598230451345
1768580193110213600,11.879213623046875,0.5078305719330907,0.27265900327265263,-0.287343362185359
1768580193120187000,11.889186767578124,0.3675421035379171,0.18309914385676382,-0.3224251969605684
1768580193130161000,11.899160888671876,0.2396612812951207,0.2189157226473093,-0.41392508452832694
1768580193140134000,11.9091337890625,0.1740790943160653,0.27839900822937486,-0.5920908636361361
1768580193150108000,11.91910791015625,0.07360942609012126,0.2768003408610821,-0.6719897452592849
1768580193160081000,11.929080810546875,-0.01737491317093372,0.25542963605225083,-0.7182441314339637
1768580193170055000,11.939054931640625,-0.017391864305734632,0.2718418416708708,-0.7068699199825524
1768580193180027600,11.949027587890624,0.06573124006092548,0.3469143260508776,-0.6518897910386323
1768580193190001000,11.9590009765625,0.24332214189022777,0.4172480914711952,-0.6434171462476254
1768580193199974700,11.968974609375,0.11726385889947413,0.3472171083897352,-0.5861082820951938
1768580193209948000,11.978947998046875,0.008386720073223114,0.36959202180504797,-0.4929857617616653
1768580193219922000,11.988921875,-0.036842706967890264,0.40299920136630535,-0.4693488655865192
1768580193229895000,11.99889501953125,0.015323533599078655,0.3758002287954092,-0.5124269598126411
1768580193239869000,12.008868896484374,0.22673954814076422,0.4272743954449892,-0.512570752197504
1768580193249842000,12.018842041015626,0.41253363016992806,0.5126204365581274,-0.5706640447258949
1768580193259816000,12.02881591796875,0.3713137310311198,0.6611907033473253,-0.6998644251346587
1768580193269788700,12.03878857421875,0.3241632727995515,0.6188029294729233,-0.6459715069055557
1768580193279761700,12.04876171875,0.4268295742869377,0.50894145578444,-0.48306350268423554
1768580193289735700,12.058735595703125,0.6226864929080009,0.5203986693441868,-0.5069938288480043
1768580193299709000,12.068708984375,0.8939116639852523,0.4937701901376247,-0.4803109891057014
1768580193309683000,12.078682861328126,1.1397799832269548,0.42725452170073985,-0.5193512061178684
1768580193319656000,12.088656005859375,1.173601588808,0.37002456800341604,-0.6000888766527176
1768580193329630000,12.0986298828125,1.0188947189599276,0.2871896329283714,-0.5457894234493375
1768580193339603000,12.10860302734375,0.8285133091405034,0.20364099662601948,-0.6106450497195124
1768580193349575700,12.11857568359375,0.8234595328822731,0.16446867766678333,-0.6582257160618901
1768580193359549700,12.1285498046875,0.8415855566814542,0.15967384460568426,-0.65445847248286
1768580193369522700,12.138522705078126,0.5309674096316099,0.15352584336996078,-0.7652285854488611
1768580193379496700,12.14849658203125,0.1363984752193093,0.17461773123741148,-0.8357432603940367
1768580193389470000,12.158469970703125,0.15708265906870364,0.08689034794569014,-0.7151978956058621
1768580193399444000,12.16844384765625,0.1363882460862398,0.04587386242449283,-0.4780547346115112
1768580193409417000,12.1784169921875,-0.1742532818391919,-0.040588615497946734,-0.21072861679941415
1768580193419391000,12.188390869140624,-0.6129170863047242,-0.22994039000868796,0.04922434189617633
1768580193429363700,12.19836376953125,-0.7445075767204165,-0.2481336338251829,0.1314262397646904
1768580193439336700,12.208336669921875,-0.7011860291272402,-0.15663783791065214,-0.002753390361368656
1768580193449310700,12.218310791015625,-0.5777148400202393,-0.13292378484606743,-0.1657452734738588
1768580193459283700,12.22828369140625,-0.3223617763355374,-0.16956921567618846,-0.31041093403995035
1768580193469257700,12.2382578125,-0.22771979134976864,-0.2136392435491085,-0.4779331540584564
1768580193479231000,12.24823095703125,-0.15901508843600748,-0.3087532299607992,-0.5283265397340059
1768580193489205000,12.258205078125,-0.3033306203901768,-0.34100188713669777,-0.47914749828428027
1768580193499178000,12.268177978515626,-0.671963441774249,-0.3547340598911047,-0.3192686326257884
1768580193509150700,12.278150634765625,-0.8150853800296783,-0.3878904795616865,-0.19200038932338356
