time,seconds_elapsed,z,y,x
1761585608138129700,0.068129638671875,-0.565673828125,-0.850677490234375,0.0658721923828125
1761585608148103700,0.078103759765625,-0.551605224609375,-0.848663330078125,0.0683441162109375
1761585608158077700,0.08807763671875,-0.552154541015625,-0.8387908935546875,0.0660858154296875
1761585608168050700,0.09805078125,-0.5576171875,-0.8385772705078125,0.060943603515625
1761585608178024700,0.108024658203125,-0.550506591796875,-0.838714599609375,0.05615234375
1761585608187998700,0.117998779296875,-0.5329132080078125,-0.8337860107421875,0.0544281005859375
1761585608197972700,0.12797265625,-0.5303192138671875,-0.830352783203125,0.0568695068359375
1761585608207945700,0.13794580078125,-0.53460693359375,-0.83599853515625,0.053802490234375
1761585608217919700,0.147919677734375,-0.5233001708984375,-0.840179443359375,0.049896240234375
1761585608227893800,0.157893798828125,-0.5153350830078125,-0.8384552001953125,0.0570068359375
1761585608237867800,0.16786767578125,-0.51690673828125,-0.8436126708984375,0.0580902099609375
1761585608247840800,0.1778408203125,-0.51025390625,-0.8438262939453125,0.0626678466796875
1761585608257814800,0.187814697265625,-0.499664306640625,-0.8392181396484375,0.0615692138671875
1761585608267788800,0.197788818359375,-0.4967193603515625,-0.8405303955078125,0.0617218017578125
1761585608277762000,0.207761962890625,-0.5023345947265625,-0.8431396484375,0.068115234375
1761585608287736000,0.217736083984375,-0.507171630859375,-0.8432464599609375,0.0694122314453125
1761585608297709800,0.227709716796875,-0.512115478515625,-0.8426055908203125,0.0665130615234375
1761585608307683800,0.237683837890625,-0.51947021484375,-0.8451690673828125,0.0640411376953125
1761585608317656800,0.24765673828125,-0.5179901123046875,-0.846588134765625,0.0587615966796875
1761585608327630800,0.257630859375,-0.5218353271484375,-0.8444671630859375,0.0549774169921875
1761585608337604900,0.26760498046875,-0.5289306640625,-0.84893798828125,0.0532684326171875
1761585608347577900,0.277577880859375,-0.5349273681640625,-0.8530120849609375,0.0587005615234375
1761585608357551900,0.2875517578125,-0.5363006591796875,-0.8541412353515625,0.060577392578125
1761585608367526000,0.29752587890625,-0.530670166015625,-0.85174560546875,0.056060791015625
1761585608377500000,0.3075,-0.5260162353515625,-0.8468170166015625,0.0524139404296875
1761585608387473000,0.317472900390625,-0.5321502685546875,-0.840606689453125,0.053131103515625
1761585608397447000,0.327447021484375,-0.5373382568359375,-0.8360443115234375,0.0569610595703125
1761585608407421000,0.3374208984375,-0.5266571044921875,-0.8327178955078125,0.055694580078125
1761585608417394000,0.347393798828125,-0.52545166015625,-0.835235595703125,0.052490234375
1761585608427368000,0.357367919921875,-0.529937744140625,-0.8400726318359375,0.05499267578125
1761585608437342000,0.367342041015625,-0.52899169921875,-0.8461456298828125,0.057037353515625
1761585608447316000,0.37731591796875,-0.534942626953125,-0.84490966796875,0.055267333984375
1761585608457288700,0.387288818359375,-0.5379180908203125,-0.846435546875,0.055694580078125
1761585608467262700,0.3972626953125,-0.5412139892578125,-0.848724365234375,0.058563232421875
1761585608477236700,0.40723681640625,-0.5444793701171875,-0.850189208984375,0.059539794921875
1761585608487209700,0.417209716796875,-0.5473785400390625,-0.8488311767578125,0.0601043701171875
1761585608497183700,0.427183837890625,-0.5430755615234375,-0.846710205078125,0.059173583984375
1761585608507157500,0.437157470703125,-0.53240966796875,-0.84246826171875,0.0624542236328125
1761585608517131500,0.447131591796875,-0.5308990478515625,-0.845733642578125,0.0654449462890625
1761585608527104300,0.457104248046875,-0.5394439697265625,-0.852813720703125,0.0643463134765625
1761585608537078300,0.467078369140625,-0.5338897705078125,-0.852386474609375,0.0598907470703125
1761585608547052300,0.47705224609375,-0.5252685546875,-0.84521484375,0.0531005859375
1761585608557025500,0.487025634765625,-0.52496337890625,-0.8419342041015625,0.0464324951171875
1761585608566999600,0.49699951171875,-0.5109405517578125,-0.8473358154296875,0.0364990234375
1761585608576973300,0.506973388671875,-0.505279541015625,-0.8511962890625,0.03692626953125
1761585608586947300,0.516947265625,-0.516845703125,-0.851593017578125,0.0405120849609375
1761585608596920600,0.526920654296875,-0.5133514404296875,-0.8510284423828125,0.0425567626953125
1761585608606894600,0.53689453125,-0.4996337890625,-0.8501434326171875,0.0496826171875
1761585608616868600,0.54686865234375,-0.5054168701171875,-0.849365234375,0.05780029296875
1761585608626841600,0.556841552734375,-0.50238037109375,-0.8487701416015625,0.0652008056640625
1761585608636815600,0.566815673828125,-0.4986572265625,-0.8460235595703125,0.06622314453125
1761585608646789600,0.57678955078125,-0.504486083984375,-0.8496856689453125,0.059844970703125
1761585608656763600,0.586763671875,-0.500946044921875,-0.8510894775390625,0.057769775390625
1761585608666736600,0.596736572265625,-0.515655517578125,-0.8535003662109375,0.0562896728515625
1761585608676710700,0.606710693359375,-0.5066375732421875,-0.856201171875,0.0571441650390625
1761585608686684700,0.6166845703125,-0.5030975341796875,-0.8518524169921875,0.06695556640625
1761585608696657400,0.626657470703125,-0.52496337890625,-0.85369873046875,0.0612030029296875
1761585608706631400,0.63663134765625,-0.516693115234375,-0.85162353515625,0.0481109619140625
1761585608716605400,0.64660546875,-0.50091552734375,-0.8467864990234375,0.038299560546875
1761585608726579500,0.656579345703125,-0.500274658203125,-0.8500213623046875,0.0410308837890625
1761585608736552400,0.666552490234375,-0.5171356201171875,-0.8519287109375,0.050537109375
1761585608746526500,0.6765263671875,-0.5289154052734375,-0.847015380859375,0.054534912109375
1761585608756500500,0.68650048828125,-0.5245208740234375,-0.83880615234375,0.0563201904296875
1761585608766473500,0.696473388671875,-0.5239715576171875,-0.8388671875,0.0570068359375
1761585608776447500,0.706447509765625,-0.5311737060546875,-0.84881591796875,0.057098388671875
1761585608786421500,0.71642138671875,-0.5312652587890625,-0.852386474609375,0.05816650390625
1761585608796395500,0.7263955078125,-0.5301055908203125,-0.8526153564453125,0.0558624267578125
1761585608806368500,0.736368408203125,-0.5310821533203125,-0.8507843017578125,0.049713134765625
1761585608816342500,0.746342529296875,-0.5312957763671875,-0.845947265625,0.04486083984375
1761585608826316500,0.756316650390625,-0.5354766845703125,-0.8449554443359375,0.043243408203125
1761585608836289300,0.766289306640625,-0.5377044677734375,-0.849517822265625,0.0484771728515625
1761585608846263300,0.77626318359375,-0.5345458984375,-0.8527374267578125,0.0566864013671875
1761585608856237300,0.7862373046875,-0.5284881591796875,-0.8475799560546875,0.06353759765625
1761585608866211300,0.79621142578125,-0.5279998779296875,-0.8453216552734375,0.066741943359375
1761585608876184600,0.8061845703125,-0.5223846435546875,-0.8513336181640625,0.063262939453125
1761585608886158600,0.81615869140625,-0.51519775390625,-0.8514404296875,0.0567169189453125
1761585608896132400,0.82613232421875,-0.514434814453125,-0.8521881103515625,0.052642822265625
1761585608906105600,0.836105712890625,-0.5124359130859375,-0.8534393310546875,0.0475616455078125
1761585608916079600,0.84607958984375,-0.507080078125,-0.849395751953125,0.04522705078125
1761585608926053600,0.8560537109375,-0.508056640625,-0.847686767578125,0.048492431640625
1761585608936027600,0.866027587890625,-0.51068115234375,-0.84759521484375,0.0517730712890625
1761585608946000600,0.876000732421875,-0.510467529296875,-0.8470916748046875,0.05169677734375
1761585608955974700,0.885974609375,-0.5067138671875,-0.8458251953125,0.048309326171875
1761585608965948700,0.89594873046875,-0.5086822509765625,-0.83575439453125,0.0495758056640625
1761585608975922700,0.905922607421875,-0.5125579833984375,-0.8343048095703125,0.0502166748046875
1761585608985895400,0.9158955078125,-0.521392822265625,-0.8413543701171875,0.048858642578125
1761585608995869400,0.925869384765625,-0.5283660888671875,-0.8490142822265625,0.054443359375
1761585609005843500,0.935843505859375,-0.526092529296875,-0.8531494140625,0.0602569580078125
1761585609015816400,0.94581640625,-0.5317230224609375,-0.8551177978515625,0.066650390625
1761585609025790500,0.95579052734375,-0.536468505859375,-0.8575439453125,0.0623931884765625
1761585609035764500,0.965764404296875,-0.525726318359375,-0.8504180908203125,0.0561065673828125
1761585609045737500,0.975737548828125,-0.5179290771484375,-0.846954345703125,0.0559234619140625
1761585609055711500,0.98571142578125,-0.524139404296875,-0.852813720703125,0.0550994873046875
1761585609065685500,0.995685546875,-0.5225067138671875,-0.850921630859375,0.0545501708984375
1761585609075659500,1.005659423828125,-0.5152740478515625,-0.8438720703125,0.052490234375
1761585609085632500,1.015632568359375,-0.5183258056640625,-0.844451904296875,0.047698974609375
1761585609095606500,1.0256064453125,-0.5182647705078125,-0.8452606201171875,0.0482940673828125
1761585609105580500,1.03558056640625,-0.516815185546875,-0.84326171875,0.0508270263671875
1761585609115553300,1.04555322265625,-0.5221710205078125,-0.8439483642578125,0.0543975830078125
1761585609125527300,1.05552734375,-0.5339508056640625,-0.85369873046875,0.0589599609375
1761585609135501300,1.065501220703125,-0.520843505859375,-0.854217529296875,0.0587921142578125
1761585609145475300,1.075475341796875,-0.5189056396484375,-0.847320556640625,0.0556793212890625
1761585609155448300,1.0854482421875,-0.522796630859375,-0.851104736328125,0.05364990234375
1761585609165422300,1.09542236328125,-0.52117919921875,-0.849578857421875,0.05572509765625
1761585609175396400,1.105396240234375,-0.515594482421875,-0.846466064453125,0.0554962158203125
1761585609185369600,1.11536962890625,-0.51593017578125,-0.842041015625,0.05609130859375
1761585609195343600,1.125343505859375,-0.5218963623046875,-0.8440399169921875,0.0596466064453125
1761585609205317400,1.1353173828125,-0.5232086181640625,-0.849761962890625,0.064422607421875
1761585609215291400,1.14529150390625,-0.52618408203125,-0.8523406982421875,0.0642547607421875
1761585609225264600,1.1552646484375,-0.523895263671875,-0.8514556884765625,0.0582275390625
1761585609235238700,1.16523876953125,-0.5121612548828125,-0.8448028564453125,0.05126953125
1761585609245212700,1.175212646484375,-0.509674072265625,-0.84515380859375,0.046417236328125
1761585609255185700,1.185185546875,-0.512359619140625,-0.8478546142578125,0.0507965087890625
1761585609265159700,1.19515966796875,-0.51654052734375,-0.851593017578125,0.053924560546875
1761585609275133700,1.2051337890625,-0.514801025390625,-0.849090576171875,0.05670166015625
1761585609285107700,1.215107666015625,-0.521209716796875,-0.8499755859375,0.059326171875
1761585609295080400,1.22508056640625,-0.52838134765625,-0.8631134033203125,0.05224609375
1761585609305054500,1.235054443359375,-0.5092620849609375,-0.8497161865234375,0.0556488037109375
1761585609315028500,1.245028564453125,-0.51605224609375,-0.841949462890625,0.0525970458984375
1761585609325001500,1.25500146484375,-0.527862548828125,-0.853424072265625,0.05596923828125
1761585609334975500,1.2649755859375,-0.5320587158203125,-0.86102294921875,0.0701141357421875
1761585609344949500,1.274949462890625,-0.5270538330078125,-0.85693359375,0.07427978515625
1761585609354923500,1.284923583984375,-0.5261383056640625,-0.854522705078125,0.0649566650390625
1761585609364896500,1.294896484375,-0.5196075439453125,-0.85760498046875,0.062255859375
1761585609374870500,1.30487060546875,-0.49285888671875,-0.85003662109375,0.062042236328125
1761585609384844500,1.314844482421875,-0.5032501220703125,-0.842041015625,0.0511932373046875
1761585609394817500,1.324817626953125,-0.5082855224609375,-0.844635009765625,0.049896240234375
1761585609404791600,1.33479150390625,-0.4911956787109375,-0.8433074951171875,0.05975341796875
1761585609414765600,1.344765625,-0.4775848388671875,-0.8500213623046875,0.058013916015625
1761585609424739600,1.354739501953125,-0.48077392578125,-0.8589324951171875,0.050689697265625
1761585609434712300,1.36471240234375,-0.515533447265625,-0.880279541015625,0.0654449462890625
1761585609444686300,1.374686279296875,-0.5143890380859375,-0.8847808837890625,0.0798187255859375
1761585609454660400,1.384660400390625,-0.4894561767578125,-0.860931396484375,0.0915069580078125
1761585609464633300,1.39463330078125,-0.4881591796875,-0.84881591796875,0.0757293701171875
1761585609474607400,1.404607421875,-0.50146484375,-0.841400146484375,0.069244384765625
1761585609484581400,1.414581298828125,-0.518829345703125,-0.837066650390625,0.0679473876953125
1761585609494555400,1.424555419921875,-0.5167083740234375,-0.846099853515625,0.073699951171875
1761585609504529000,1.43452880859375,-0.457183837890625,-0.8833770751953125,0.0857696533203125
1761585609514503000,1.4445029296875,-0.4656524658203125,-0.9041595458984375,0.07421875
1761585609524477000,1.454476806640625,-0.4808807373046875,-0.885772705078125,0.06451416015625
1761585609534450200,1.4644501953125,-0.4803619384765625,-0.8628692626953125,0.0609893798828125
1761585609544424000,1.474423828125,-0.4854888916015625,-0.8502655029296875,0.05914306640625
1761585609554398000,1.48439794921875,-0.4939422607421875,-0.8493499755859375,0.0630645751953125
1761585609564372000,1.4943720703125,-0.4956512451171875,-0.849334716796875,0.0724334716796875
1761585609574345200,1.50434521484375,-0.503631591796875,-0.843170166015625,0.0773162841796875
1761585609584319200,1.5143193359375,-0.5057830810546875,-0.8382415771484375,0.0746612548828125
1761585609594293000,1.52429296875,-0.5022125244140625,-0.8401031494140625,0.063446044921875
1761585609604266200,1.534266357421875,-0.5075225830078125,-0.8468170166015625,0.0576019287109375
1761585609614240300,1.544240234375,-0.517578125,-0.855560302734375,0.0583648681640625
1761585609624214300,1.55421435546875,-0.5254058837890625,-0.859771728515625,0.0648651123046875
1761585609634188300,1.564188232421875,-0.516876220703125,-0.8648223876953125,0.0710601806640625
1761585609644161000,1.5741611328125,-0.5198211669921875,-0.86932373046875,0.082275390625
1761585609654135000,1.584135009765625,-0.5284271240234375,-0.8757476806640625,0.0925750732421875
1761585609664109000,1.594109130859375,-0.5220947265625,-0.872772216796875,0.0997161865234375
1761585609674082000,1.60408203125,-0.5231170654296875,-0.8631591796875,0.10400390625
1761585609684056000,1.61405615234375,-0.515655517578125,-0.8596343994140625,0.09967041015625
1761585609694030000,1.624030029296875,-0.5100555419921875,-0.8548431396484375,0.0908966064453125
1761585609704004000,1.634004150390625,-0.5196533203125,-0.8498077392578125,0.0802001953125
1761585609713977000,1.64397705078125,-0.529205322265625,-0.8455963134765625,0.070343017578125
1761585609723951000,1.653951171875,-0.5330047607421875,-0.8428497314453125,0.0628204345703125
1761585609733925000,1.663925048828125,-0.52471923828125,-0.8413543701171875,0.058258056640625
1761585609743899100,1.673899169921875,-0.5258941650390625,-0.8387298583984375,0.0575714111328125
1761585609753872100,1.6838720703125,-0.5353546142578125,-0.8394622802734375,0.051483154296875
1761585609763846100,1.69384619140625,-0.5307769775390625,-0.83990478515625,0.046661376953125
1761585609773820200,1.703820068359375,-0.5262451171875,-0.8436431884765625,0.0557708740234375
1761585609783793000,1.71379296875,-0.574188232421875,-0.86944580078125,0.0697174072265625
1761585609793767000,1.723766845703125,-0.571441650390625,-0.8970794677734375,0.0650177001953125
1761585609803741000,1.733740966796875,-0.49737548828125,-0.8537139892578125,0.0766143798828125
1761585609813714000,1.7437138671875,-0.5171966552734375,-0.8188323974609375,0.0783843994140625
1761585609823688000,1.75368798828125,-0.572601318359375,-0.837005615234375,0.0718231201171875
1761585609833662000,1.763661865234375,-0.5508270263671875,-0.865386962890625,0.083831787109375
1761585609843636000,1.773635986328125,-0.513946533203125,-0.8767547607421875,0.090606689453125
1761585609853609000,1.78360888671875,-0.490753173828125,-0.89337158203125,0.0782318115234375
1761585609863583000,1.7935830078125,-0.489471435546875,-0.8863983154296875,0.064697265625
1761585609873557000,1.803556884765625,-0.49853515625,-0.86541748046875,0.0574188232421875
1761585609883531000,1.813531005859375,-0.486358642578125,-0.851898193359375,0.043670654296875
1761585609893504300,1.823504150390625,-0.4518585205078125,-0.83270263671875,0.0427093505859375
1761585609903478300,1.833478271484375,-0.4446563720703125,-0.834625244140625,0.0487060546875
1761585609913452000,1.8434521484375,-0.4696502685546875,-0.862152099609375,0.0535888671875
1761585609923425000,1.853425048828125,-0.4764862060546875,-0.8818817138671875,0.0471649169921875
1761585609933399000,1.86339892578125,-0.456939697265625,-0.8701171875,0.0452117919921875
1761585609943373000,1.873373046875,-0.4480438232421875,-0.8508148193359375,0.0397491455078125
1761585609953347000,1.88334716796875,-0.44537353515625,-0.84710693359375,0.0429229736328125
1761585609963320000,1.893320068359375,-0.461761474609375,-0.8535003662109375,0.0580902099609375
1761585609973294000,1.903294189453125,-0.4737396240234375,-0.871002197265625,0.0607757568359375
1761585609983268000,1.91326806640625,-0.4679107666015625,-0.881317138671875,0.0620269775390625
1761585609993241000,1.923240966796875,-0.4633636474609375,-0.8812255859375,0.05609130859375
1761585610003215000,1.933215087890625,-0.462615966796875,-0.881744384765625,0.04840087890625
1761585610013189000,1.943189208984375,-0.451873779296875,-0.8804931640625,0.0403289794921875
1761585610023163100,1.9531630859375,-0.437591552734375,-0.879638671875,0.0298614501953125
1761585610033136000,1.96313623046875,-0.434906005859375,-0.8783416748046875,0.03411865234375
1761585610043110100,1.973110107421875,-0.4479522705078125,-0.8771209716796875,0.0312957763671875
1761585610053084200,1.983084228515625,-0.4607696533203125,-0.88458251953125,0.0351409912109375
1761585610063057200,1.99305712890625,-0.4788055419921875,-0.888916015625,0.0540771484375
1761585610073031200,2.00303125,-0.4795989990234375,-0.879058837890625,0.0578460693359375
1761585610083005200,2.013005126953125,-0.46990966796875,-0.8848114013671875,0.045867919921875
1761585610092979200,2.022979248046875,-0.4712066650390625,-0.9022369384765625,0.0330352783203125
1761585610102952000,2.032951904296875,-0.4749908447265625,-0.9228363037109375,0.022613525390625
1761585610112926000,2.042926025390625,-0.466339111328125,-0.9486541748046875,0.0026397705078125
1761585610122900000,2.05289990234375,-0.4830474853515625,-0.936248779296875,-0.01031494140625
1761585610132873000,2.062873046875,-0.49835205078125,-0.8609161376953125,-0.0050048828125
1761585610142847000,2.072846923828125,-0.509918212890625,-0.8490142822265625,-0.0009307861328125
1761585610152821000,2.082821044921875,-0.4727630615234375,-0.8487701416015625,0.0152587890625
1761585610167781000,2.097781005859375,-0.282196044921875,-0.921112060546875,0.167877197265625
1761585610177755100,2.107755126953125,-0.321746826171875,-0.951141357421875,0.2033233642578125
1761585610187729200,2.117729248046875,-0.3675537109375,-0.878265380859375,0.1572723388671875
1761585610197703200,2.127703125,-0.3612060546875,-0.844940185546875,0.054168701171875
1761585610207676200,2.13767626953125,-0.363525390625,-0.8559112548828125,0.01312255859375
1761585610217650200,2.147650146484375,-0.380096435546875,-0.8824310302734375,0.029388427734375
1761585610227624200,2.157624267578125,-0.4107513427734375,-0.905181884765625,0.0581817626953125
1761585610237597000,2.167596923828125,-0.4121246337890625,-0.9163055419921875,0.0594482421875
1761585610247571000,2.177571044921875,-0.4066009521484375,-0.8997802734375,0.056549072265625
1761585610257545000,2.187544921875,-0.4047698974609375,-0.8911895751953125,0.0528717041015625
1761585610267519000,2.19751904296875,-0.4068756103515625,-0.8809967041015625,0.04486083984375
1761585610277492000,2.207491943359375,-0.4537506103515625,-0.8607940673828125,0.0181121826171875
1761585610287466000,2.217466064453125,-0.5148773193359375,-0.859100341796875,-0.0134429931640625
1761585610297440000,2.22743994140625,-0.5338592529296875,-0.862060546875,-0.0212249755859375
1761585610307413000,2.2374130859375,-0.5305633544921875,-0.8502655029296875,-0.0317230224609375
1761585610317387000,2.247386962890625,-0.5144195556640625,-0.8588714599609375,-0.0272064208984375
1761585610327361000,2.257361083984375,-0.503173828125,-0.886627197265625,-0.02288818359375
1761585610337335000,2.2673349609375,-0.4901580810546875,-0.9152984619140625,-0.0697784423828125
1761585610347308000,2.27730810546875,-0.5030975341796875,-0.9238128662109375,-0.1257781982421875
1761585610357282000,2.287281982421875,-0.5376434326171875,-0.8663482666015625,0.000274658203125
1761585610367256000,2.297256103515625,-0.562530517578125,-0.8664093017578125,0.1421356201171875
1761585610377230000,2.30722998046875,-0.5991668701171875,-0.9051666259765625,0.1563720703125
1761585610387203000,2.317203125,-0.6533050537109375,-0.916717529296875,0.04193115234375
1761585610397177000,2.327177001953125,-0.64361572265625,-0.873992919921875,-0.080841064453125
1761585610407151000,2.337151123046875,-0.619964599609375,-0.8230743408203125,-0.1088409423828125
1761585610417124000,2.3471240234375,-0.6067352294921875,-0.8462982177734375,-0.1166839599609375
1761585610427098000,2.35709814453125,-0.6153564453125,-0.915618896484375,-0.075958251953125
1761585610437072100,2.367072021484375,-0.644927978515625,-1.0066375732421875,-0.0398101806640625
1761585610447046100,2.377046142578125,-0.6421966552734375,-1.052978515625,-0.096099853515625
1761585610457019100,2.38701904296875,-0.6362152099609375,-1.0621337890625,-0.1370697021484375
1761585610466993200,2.3969931640625,-0.6245269775390625,-1.057159423828125,-0.135711669921875
1761585610476967200,2.40696728515625,-0.6150360107421875,-1.022613525390625,-0.1224212646484375
1761585610486940200,2.416940185546875,-0.6149139404296875,-0.98333740234375,-0.090240478515625
1761585610496914200,2.4269140625,-0.6213226318359375,-0.9575347900390625,-0.049713134765625
1761585610506887400,2.436887451171875,-0.6117401123046875,-0.92901611328125,-0.035614013671875
1761585610516861400,2.446861328125,-0.6102142333984375,-0.8864898681640625,-0.0271148681640625
1761585610526834400,2.45683447265625,-0.612091064453125,-0.847808837890625,0.0029296875
1761585610536808400,2.466808349609375,-0.6091766357421875,-0.8299407958984375,0.0524139404296875
1761585610546782500,2.476782470703125,-0.5975341796875,-0.833831787109375,0.080902099609375
1761585610556755500,2.48675537109375,-0.5807952880859375,-0.8434906005859375,0.10675048828125
1761585610566729500,2.4967294921875,-0.5182037353515625,-0.8861541748046875,-0.1059417724609375
1761585610576703500,2.506703369140625,-0.2706298828125,-0.7083282470703125,0.3975067138671875
1761585610586677500,2.516677490234375,-0.348876953125,-0.7311553955078125,0.3958740234375
1761585610596650500,2.526650390625,-0.6591644287109375,-0.9637908935546875,0.046722412109375
1761585610606624500,2.53662451171875,-0.533905029296875,-0.8780670166015625,0.1192626953125
1761585610616598500,2.5465986328125,-0.4867401123046875,-0.772003173828125,0.2041778564453125
1761585610626571500,2.556571533203125,-0.49188232421875,-0.8033294677734375,0.2299041748046875
1761585610636545500,2.566545654296875,-0.4479827880859375,-0.79840087890625,0.280792236328125
1761585610646519300,2.576519287109375,-0.4007110595703125,-0.78173828125,0.28240966796875
1761585610656493300,2.586493408203125,-0.39886474609375,-0.7629852294921875,0.308563232421875
1761585610666466600,2.596466552734375,-0.402984619140625,-0.73974609375,0.298492431640625
1761585610676440600,2.606440673828125,-0.3910369873046875,-0.7876739501953125,0.3099365234375
1761585610686414600,2.61641455078125,-0.3923187255859375,-0.8170623779296875,0.34796142578125
1761585610696388600,2.626388671875,-0.4054412841796875,-0.7957000732421875,0.34783935546875
1761585610706361600,2.636361572265625,-0.4014434814453125,-0.791961669921875,0.33050537109375
1761585610716335600,2.646335693359375,-0.394927978515625,-0.78839111328125,0.352569580078125
1761585610726309600,2.6563095703125,-0.3861846923828125,-0.79827880859375,0.362518310546875
1761585610736282600,2.66628271484375,-0.3835296630859375,-0.805938720703125,0.363983154296875
1761585610746256600,2.676256591796875,-0.377044677734375,-0.8062286376953125,0.3761444091796875
1761585610756230700,2.686230712890625,-0.38043212890625,-0.80340576171875,0.4001922607421875
1761585610766204700,2.69620458984375,-0.4022979736328125,-0.793609619140625,0.4131622314453125
1761585610776177400,2.706177490234375,-0.3976287841796875,-0.8029632568359375,0.4190826416015625
1761585610786151400,2.7161513671875,-0.3885040283203125,-0.824493408203125,0.439361572265625
1761585610796125400,2.72612548828125,-0.391204833984375,-0.8011016845703125,0.4331512451171875
1761585610806098400,2.736098388671875,-0.385833740234375,-0.7657470703125,0.4123382568359375
1761585610816072400,2.746072509765625,-0.3854217529296875,-0.7430267333984375,0.4174652099609375
1761585610826046500,2.75604638671875,-0.3806915283203125,-0.7334747314453125,0.4300384521484375
1761585610836020500,2.7660205078125,-0.39129638671875,-0.7150421142578125,0.3946685791015625
1761585610845993500,2.775993408203125,-0.392333984375,-0.6841278076171875,0.386810302734375
1761585610855967500,2.785967529296875,-0.3419647216796875,-0.6785430908203125,0.4276580810546875
1761585610865941500,2.79594140625,-0.351593017578125,-0.6821136474609375,0.400970458984375
1761585610875914500,2.80591455078125,-0.3399200439453125,-0.6583099365234375,0.413482666015625
1761585610885888500,2.815888427734375,-0.3314208984375,-0.639923095703125,0.3915557861328125
1761585610895862500,2.825862548828125,-0.3677215576171875,-0.639495849609375,0.361297607421875
1761585610905836500,2.83583642578125,-0.388092041015625,-0.6820068359375,0.362213134765625
1761585610915809300,2.845809326171875,-0.3911590576171875,-0.7026519775390625,0.3735504150390625
1761585610925783300,2.855783203125,-0.416229248046875,-0.681610107421875,0.3298187255859375
1761585610935757300,2.86575732421875,-0.438507080078125,-0.672088623046875,0.2885894775390625
1761585610945730600,2.87573046875,-0.437957763671875,-0.6896209716796875,0.277008056640625
1761585610955704600,2.88570458984375,-0.4458160400390625,-0.702972412109375,0.258941650390625
1761585610965678300,2.89567822265625,-0.4732208251953125,-0.7160186767578125,0.2509613037109375
1761585610975652400,2.90565234375,-0.48992919921875,-0.7303314208984375,0.2422027587890625
1761585610985625600,2.91562548828125,-0.4932098388671875,-0.7266845703125,0.2526702880859375
1761585610995599600,2.925599609375,-0.48748779296875,-0.7143707275390625,0.247955322265625
1761585611005573600,2.93557373046875,-0.5308837890625,-0.7057037353515625,0.2095794677734375
1761585611015547400,2.94554736328125,-0.5574798583984375,-0.7340850830078125,0.1638336181640625
1761585611025520600,2.955520751953125,-0.587158203125,-0.756378173828125,0.1321563720703125
1761585611035494700,2.96549462890625,-0.6167144775390625,-0.757049560546875,0.1287689208984375
1761585611045468700,2.97546875,-0.62921142578125,-0.759521484375,0.1469879150390625
1761585611055441400,2.98544140625,-0.640716552734375,-0.749908447265625,0.1578521728515625
1761585611065415400,2.99541552734375,-0.6923675537109375,-0.734710693359375,0.144561767578125
1761585611075389400,3.005389404296875,-0.7195281982421875,-0.719818115234375,0.13299560546875
1761585611085363500,3.015363525390625,-0.73382568359375,-0.6957855224609375,0.1110687255859375
1761585611095336400,3.02533642578125,-0.76629638671875,-0.6776275634765625,0.08880615234375
1761585611105310500,3.035310546875,-0.804718017578125,-0.6400146484375,0.089752197265625
1761585611115284500,3.045284423828125,-0.7666778564453125,-0.5972442626953125,0.09478759765625
1761585611125257500,3.055257568359375,-0.752227783203125,-0.5844573974609375,0.1082763671875
1761585611135231500,3.0652314453125,-0.80267333984375,-0.598114013671875,0.089691162109375
1761585611145205500,3.07520556640625,-0.8123016357421875,-0.6009521484375,0.038421630859375
1761585611155179500,3.085179443359375,-0.86627197265625,-0.5823516845703125,-0.01629638671875
1761585611165152500,3.095152587890625,-0.9286346435546875,-0.5736846923828125,-0.0370635986328125
1761585611175126500,3.10512646484375,-0.949066162109375,-0.5768280029296875,-0.0478973388671875
1761585611185100500,3.1151005859375,-0.95123291015625,-0.5865325927734375,-0.0690460205078125
1761585611195074600,3.125074462890625,-0.9453125,-0.6042633056640625,-0.1034393310546875
1761585611205047600,3.135047607421875,-0.9858856201171875,-0.60589599609375,-0.1503753662109375
1761585611215021600,3.145021484375,-0.9807281494140625,-0.6025848388671875,-0.18621826171875
1761585611224995600,3.15499560546875,-0.9491729736328125,-0.605194091796875,-0.17694091796875
1761585611234968300,3.16496826171875,-0.9118804931640625,-0.6011962890625,-0.14691162109375
1761585611244942300,3.1749423828125,-0.8643341064453125,-0.585205078125,-0.1315765380859375
1761585611254916400,3.184916259765625,-0.837554931640625,-0.5573272705078125,-0.12103271484375
1761585611264890400,3.194890380859375,-0.83160400390625,-0.537841796875,-0.11834716796875
1761585611274863400,3.20486328125,-0.8084259033203125,-0.54974365234375,-0.1141357421875
1761585611284837400,3.21483740234375,-0.799041748046875,-0.571807861328125,-0.1096343994140625
1761585611294811400,3.224811279296875,-0.7716217041015625,-0.5992584228515625,-0.120330810546875
1761585611304784600,3.23478466796875,-0.75897216796875,-0.6245880126953125,-0.1100921630859375
1761585611314758700,3.244758544921875,-0.7634429931640625,-0.629119873046875,-0.102325439453125
1761585611324732400,3.254732421875,-0.7536163330078125,-0.625640869140625,-0.0977325439453125
1761585611334706400,3.26470654296875,-0.7704620361328125,-0.6615142822265625,-0.1004486083984375
1761585611344679700,3.2746796875,-0.79547119140625,-0.7126617431640625,-0.1151885986328125
1761585611354653700,3.28465380859375,-0.8031463623046875,-0.8081207275390625,-0.1296844482421875
1761585611364627700,3.294627685546875,-0.8209686279296875,-0.846893310546875,-0.140228271484375
1761585611374601700,3.304601806640625,-0.8542938232421875,-0.8365936279296875,-0.177276611328125
1761585611384574500,3.314574462890625,-0.85284423828125,-0.8331298828125,-0.1767425537109375
1761585611394548500,3.324548583984375,-0.83538818359375,-0.7891387939453125,-0.1255340576171875
1761585611404522500,3.3345224609375,-0.8972320556640625,-0.760162353515625,-0.0944976806640625
1761585611414495500,3.34449560546875,-0.9389801025390625,-0.7906951904296875,-0.0925445556640625
1761585611424469500,3.354469482421875,-0.943206787109375,-0.7821807861328125,-0.08221435546875
1761585611434443500,3.364443603515625,-0.891021728515625,-0.74603271484375,-0.0905303955078125
1761585611444417500,3.37441748046875,-0.8252410888671875,-0.67559814453125,-0.046630859375
1761585611454390500,3.384390625,-0.8165435791015625,-0.620208740234375,-0.0134429931640625
1761585611464364500,3.394364501953125,-0.84063720703125,-0.585845947265625,-0.0351104736328125
1761585611474338600,3.404338623046875,-0.8857269287109375,-0.570343017578125,-0.0459747314453125
1761585611484311600,3.4143115234375,-0.8975982666015625,-0.5585784912109375,-0.0422821044921875
1761585611494285600,3.42428564453125,-0.888214111328125,-0.5528564453125,-0.0364532470703125
1761585611504259600,3.434259521484375,-0.8709869384765625,-0.5644378662109375,-0.037353515625
1761585611514234000,3.444234130859375,-0.856292724609375,-0.60711669921875,-0.0365753173828125
1761585611524206800,3.454206787109375,-0.834625244140625,-0.6334686279296875,-0.02490234375
1761585611534180900,3.464180908203125,-0.8441162109375,-0.5825958251953125,-0.0313262939453125
1761585611544155000,3.47415478515625,-0.8529510498046875,-0.563079833984375,-0.064453125
1761585611554129000,3.48412890625,-0.82550048828125,-0.5802459716796875,-0.090728759765625
1761585611564102000,3.494101806640625,-0.8203582763671875,-0.6096343994140625,-0.105865478515625
1761585611574076000,3.504075927734375,-0.8960113525390625,-0.691131591796875,-0.141998291015625
1761585611584050000,3.5140498046875,-0.891510009765625,-0.7035675048828125,-0.1474761962890625
1761585611594023000,3.52402294921875,-0.851776123046875,-0.69586181640625,-0.1163482666015625
1761585611603997000,3.533996826171875,-0.8845062255859375,-0.7116851806640625,-0.081268310546875
1761585611613971000,3.543970947265625,-0.927093505859375,-0.7432098388671875,-0.0774383544921875
1761585611623945000,3.553945068359375,-0.961395263671875,-0.760101318359375,-0.120574951171875
1761585611633918000,3.56391796875,-0.9221343994140625,-0.717529296875,-0.199951171875
1761585611643892000,3.57389208984375,-0.85595703125,-0.6341705322265625,-0.276947021484375
1761585611653866000,3.583865966796875,-0.8380584716796875,-0.414306640625,-0.2449188232421875
1761585611663840000,3.593840087890625,-0.7756195068359375,-0.322265625,-0.1995391845703125
1761585611673813000,3.60381298828125,-0.84503173828125,-0.4166412353515625,-0.2513275146484375
1761585611683786800,3.613786865234375,-0.9295806884765625,-0.54986572265625,-0.330078125
1761585611693760800,3.6237607421875,-1.0346832275390625,-0.621063232421875,-0.3287353515625
1761585611703734000,3.633734130859375,-0.9755096435546875,-0.6490936279296875,-0.2561798095703125
1761585611713708000,3.6437080078125,-0.777923583984375,-0.667755126953125,-0.2637939453125
1761585611723682000,3.65368212890625,-0.732818603515625,-0.6533355712890625,-0.308807373046875
1761585611733655800,3.66365576171875,-0.73016357421875,-0.6223602294921875,-0.24761962890625
1761585611743629000,3.673629150390625,-0.6854705810546875,-0.6035308837890625,-0.1685028076171875
1761585611753603000,3.68360302734375,-0.625732421875,-0.6416778564453125,-0.141876220703125
1761585611763577000,3.6935771484375,-0.6403961181640625,-0.6658782958984375,-0.098358154296875
1761585611773550000,3.703550048828125,-0.654266357421875,-0.6644134521484375,-0.05078125
1761585611783524000,3.713524169921875,-0.693328857421875,-0.661041259765625,-0.0631561279296875
1761585611793498000,3.723498046875,-0.7117919921875,-0.6497039794921875,-0.1100921630859375
1761585611803472100,3.73347216796875,-0.71044921875,-0.644439697265625,-0.1208343505859375
1761585611813444900,3.74344482421875,-0.6985015869140625,-0.6348419189453125,-0.1071929931640625
1761585611823419000,3.7534189453125,-0.675750732421875,-0.6701812744140625,-0.097259521484375
1761585611833393000,3.763392822265625,-0.6875762939453125,-0.6887969970703125,-0.1089630126953125
1761585611843367000,3.773366943359375,-0.7090911865234375,-0.6751556396484375,-0.10888671875
1761585611853340000,3.78333984375,-0.7188262939453125,-0.6715545654296875,-0.085906982421875
1761585611863314000,3.79331396484375,-0.70025634765625,-0.68243408203125,-0.0842437744140625
1761585611873288000,3.803287841796875,-0.6721954345703125,-0.6955108642578125,-0.0910797119140625
1761585611883261000,3.813260986328125,-0.638214111328125,-0.700469970703125,-0.0683135986328125
1761585611893235000,3.82323486328125,-0.612335205078125,-0.6843109130859375,-0.05462646484375
1761585611903209000,3.833208984375,-0.5959930419921875,-0.665740966796875,-0.0563201904296875
1761585611913183000,3.843182861328125,-0.57196044921875,-0.6656646728515625,-0.0160369873046875
1761585611923156000,3.853156005859375,-0.5418548583984375,-0.7163238525390625,0.0076141357421875
1761585611933130000,3.8631298828125,-0.55035400390625,-0.7777099609375,0.0339202880859375
1761585611943104000,3.87310400390625,-0.5520477294921875,-0.8004913330078125,0.01947021484375
1761585611953078000,3.883078125,-0.55548095703125,-0.8010101318359375,0.0123443603515625
1761585611963050800,3.89305078125,-0.5516510009765625,-0.7989501953125,0.0348663330078125
1761585611973024800,3.903024658203125,-0.537628173828125,-0.8034820556640625,0.0519256591796875
1761585611982998800,3.912998779296875,-0.5320281982421875,-0.8085784912109375,0.0645599365234375
1761585611992971800,3.9229716796875,-0.51922607421875,-0.813507080078125,0.0519256591796875
1761585612002945800,3.93294580078125,-0.4923248291015625,-0.80987548828125,0.0324249267578125
1761585612012919800,3.942919921875,-0.4919586181640625,-0.7960205078125,0.0418701171875
1761585612022893800,3.952893798828125,-0.5059967041015625,-0.7806854248046875,0.019256591796875
1761585612032867000,3.9628671875,-0.5285491943359375,-0.7472381591796875,-0.0028839111328125
1761585612042840800,3.9728408203125,-0.5334320068359375,-0.712188720703125,0.00006103515625
1761585612052814800,3.98281494140625,-0.5417938232421875,-0.74151611328125,0.004974365234375
1761585612062788000,3.9927880859375,-0.5607757568359375,-0.775848388671875,0.0034942626953125
1761585612072762000,4.00276220703125,-0.5468902587890625,-0.73895263671875,0.0483245849609375
1761585612082735000,4.012735107421875,-0.5598602294921875,-0.718017578125,0.0635528564453125
1761585612092707800,4.022707763671875,-0.5684661865234375,-0.733154296875,0.0494232177734375
1761585612102681900,4.032681884765625,-0.579315185546875,-0.7248687744140625,0.05145263671875
1761585612112656000,4.04265576171875,-0.582916259765625,-0.6977691650390625,0.052001953125
1761585612122628900,4.05262890625,-0.5843353271484375,-0.6746673583984375,0.048126220703125
1761585612132603000,4.062602783203125,-0.604278564453125,-0.662139892578125,0.0623016357421875
1761585612142577000,4.072576904296875,-0.593109130859375,-0.681732177734375,0.078399658203125
1761585612152551000,4.082551025390625,-0.58154296875,-0.706146240234375,0.088226318359375
1761585612162524000,4.09252392578125,-0.5892181396484375,-0.7267913818359375,0.081634521484375
1761585612172498000,4.102497802734375,-0.5976715087890625,-0.7330474853515625,0.0509490966796875
1761585612182472000,4.112471923828125,-0.608489990234375,-0.714569091796875,0.0387725830078125
1761585612192445000,4.12244482421875,-0.602813720703125,-0.7246856689453125,0.0501708984375
1761585612202419000,4.1324189453125,-0.6074371337890625,-0.7486572265625,0.0715484619140625
1761585612212393000,4.14239306640625,-0.5880126953125,-0.767852783203125,0.0846710205078125
1761585612222367000,4.152366943359375,-0.5640716552734375,-0.7857666015625,0.1059417724609375
1761585612232340000,4.162340087890625,-0.5425567626953125,-0.804656982421875,0.1277618408203125
1761585612242314000,4.17231396484375,-0.5408782958984375,-0.810394287109375,0.1417083740234375
1761585612252287700,4.182287841796875,-0.5418853759765625,-0.8251495361328125,0.1505889892578125
1761585612262261800,4.19226171875,-0.53497314453125,-0.8389739990234375,0.11309814453125
1761585612272235000,4.202235107421875,-0.5272216796875,-0.84576416015625,0.082122802734375
1761585612282209000,4.212208984375,-0.5186004638671875,-0.85772705078125,0.080810546875
1761585612292183000,4.22218310546875,-0.5158843994140625,-0.8597564697265625,0.0550994873046875
1761585612302156000,4.232156005859375,-0.5230865478515625,-0.853759765625,0.0640411376953125
1761585612312130000,4.242130126953125,-0.5328369140625,-0.852874755859375,0.0789031982421875
1761585612322104000,4.25210400390625,-0.532958984375,-0.8506622314453125,0.079071044921875
1761585612332078000,4.262078125,-0.518707275390625,-0.8409423828125,0.08489990234375
1761585612342051000,4.272051025390625,-0.5060272216796875,-0.8307952880859375,0.070770263671875
1761585612352025000,4.282025146484375,-0.5006561279296875,-0.832183837890625,0.058807373046875
1761585612361999000,4.2919990234375,-0.4995269775390625,-0.8483734130859375,0.0518646240234375
1761585612371973000,4.30197314453125,-0.5034027099609375,-0.8507232666015625,0.0325775146484375
1761585612381945900,4.31194580078125,-0.49169921875,-0.84783935546875,0.0291595458984375
1761585612391919900,4.321919921875,-0.48052978515625,-0.8542022705078125,0.02197265625
1761585612401894000,4.331893798828125,-0.46478271484375,-0.864776611328125,0.0094757080078125
1761585612411867000,4.341866943359375,-0.4510040283203125,-0.8759765625,-0.0113677978515625
1761585612421841000,4.3518408203125,-0.446685791015625,-0.8789825439453125,-0.02593994140625
1761585612431815000,4.36181494140625,-0.4501495361328125,-0.86737060546875,-0.043121337890625
1761585612441789000,4.371788818359375,-0.4515380859375,-0.8805389404296875,-0.064208984375
1761585612451762000,4.381761962890625,-0.450469970703125,-0.8998565673828125,-0.04437255859375
1761585612461736000,4.39173583984375,-0.4197540283203125,-0.91253662109375,-0.0364227294921875
1761585612471710000,4.4017099609375,-0.4261627197265625,-0.9081573486328125,-0.03619384765625
1761585612481683000,4.411682861328125,-0.4219818115234375,-0.880767822265625,-0.034912109375
1761585612491657000,4.421656982421875,-0.423309326171875,-0.8348236083984375,-0.0388641357421875
1761585612501631000,4.431630859375,-0.4261322021484375,-0.8237762451171875,-0.0498809814453125
1761585612511605500,4.44160546875,-0.4334259033203125,-0.8202667236328125,-0.0610809326171875
1761585612521578500,4.45157861328125,-0.4281768798828125,-0.81085205078125,-0.0715179443359375
1761585612531552500,4.461552490234375,-0.4234466552734375,-0.8144073486328125,-0.0869903564453125
1761585612541526500,4.471526611328125,-0.4181671142578125,-0.83636474609375,-0.090545654296875
1761585612551500500,4.48150048828125,-0.409423828125,-0.868743896484375,-0.0736083984375
1761585612561473300,4.491473388671875,-0.40338134765625,-0.8991851806640625,-0.049530029296875
1761585612571447300,4.501447265625,-0.411376953125,-0.9211883544921875,-0.01922607421875
1761585612581421300,4.51142138671875,-0.415557861328125,-0.9306640625,-0.0009765625
1761585612591394300,4.521394287109375,-0.4227447509765625,-0.927032470703125,-0.0139007568359375
1761585612601368300,4.531368408203125,-0.414886474609375,-0.90631103515625,-0.0338287353515625
1761585612611342300,4.54134228515625,-0.406219482421875,-0.889617919921875,-0.0595855712890625
1761585612621316400,4.55131640625,-0.4210662841796875,-0.8680267333984375,-0.12030029296875
1761585612631289600,4.56128955078125,-0.456146240234375,-0.8428955078125,-0.1267547607421875
1761585612641263400,4.571263427734375,-0.368011474609375,-0.8715972900390625,-0.0706024169921875
1761585612651237400,4.5812373046875,-0.3446502685546875,-0.903564453125,-0.0612030029296875
1761585612661211400,4.59121142578125,-0.40277099609375,-0.9527587890625,0.0445556640625
1761585612671184600,4.6011845703125,-0.3851165771484375,-1.0016021728515625,0.004608154296875
1761585612681158700,4.61115869140625,-0.391082763671875,-0.9828033447265625,-0.0592193603515625
1761585612691132700,4.621132568359375,-0.383880615234375,-0.9462738037109375,-0.0699615478515625
1761585612701105400,4.63110546875,-0.3824615478515625,-0.9265289306640625,-0.0455780029296875
1761585612711079400,4.641079345703125,-0.4041595458984375,-0.9195098876953125,-0.0380859375
1761585612721053400,4.651053466796875,-0.429107666015625,-0.91802978515625,-0.029327392578125
1761585612731027500,4.66102734375,-0.4450531005859375,-0.9307098388671875,0.0002899169921875
1761585612741000400,4.67100048828125,-0.47021484375,-0.9542388916015625,0.0219879150390625
1761585612750974500,4.680974365234375,-0.4902191162109375,-0.97503662109375,0.015594482421875
1761585612760948500,4.690948486328125,-0.50543212890625,-0.9715576171875,0.008575439453125
1761585612770921500,4.70092138671875,-0.5208740234375,-0.9674835205078125,0.021881103515625
1761585612780895500,4.7108955078125,-0.5395050048828125,-0.975372314453125,0.02996826171875
1761585612790869500,4.720869384765625,-0.5531005859375,-0.981964111328125,0.0205841064453125
1761585612800843500,4.730843505859375,-0.5605621337890625,-0.97247314453125,0.016754150390625
1761585612810816500,4.74081640625,-0.5614166259765625,-0.958221435546875,0.0257568359375
1761585612820790500,4.75079052734375,-0.5599517822265625,-0.95428466796875,0.0443267822265625
1761585612830764500,4.7607646484375,-0.5536346435546875,-0.956329345703125,0.063140869140625
1761585612840738600,4.770738525390625,-0.552093505859375,-0.946533203125,0.0654449462890625
1761585612850711300,4.780711181640625,-0.55596923828125,-0.9306793212890625,0.0554656982421875
1761585612860685300,4.790685302734375,-0.563385009765625,-0.919036865234375,0.0459747314453125
1761585612870659300,4.800659423828125,-0.5708770751953125,-0.8867645263671875,0.015655517578125
1761585612880632300,4.81063232421875,-0.5654296875,-0.84906005859375,-0.042266845703125
1761585612890606300,4.8206064453125,-0.565032958984375,-0.82373046875,-0.0685272216796875
1761585612900580400,4.830580322265625,-0.5712890625,-0.81158447265625,-0.0710906982421875
1761585612910554400,4.840554443359375,-0.561431884765625,-0.794219970703125,-0.0810546875
1761585612920527400,4.85052734375,-0.5538787841796875,-0.770660400390625,-0.092864990234375
1761585612930501400,4.86050146484375,-0.5424346923828125,-0.7696533203125,-0.0946197509765625
1761585612940475400,4.870475341796875,-0.5287017822265625,-0.774444580078125,-0.0947723388671875
1761585612950449400,4.880449462890625,-0.5127105712890625,-0.768402099609375,-0.0888519287109375
1761585612960422400,4.89042236328125,-0.498077392578125,-0.7628326416015625,-0.0764923095703125
1761585612970396400,4.900396484375,-0.4974365234375,-0.7736358642578125,-0.052978515625
1761585612980370400,4.910370361328125,-0.4932861328125,-0.7915191650390625,-0.0279388427734375
1761585612990343700,4.92034375,-0.4929046630859375,-0.8234100341796875,-0.0225372314453125
1761585613000317400,4.9303173828125,-0.49853515625,-0.8732452392578125,-0.015655517578125
1761585613010291500,4.94029150390625,-0.5004730224609375,-0.907257080078125,-0.0213470458984375
1761585613020265200,4.95026513671875,-0.5013580322265625,-0.9289703369140625,-0.020477294921875
1761585613030238500,4.960238525390625,-0.507904052734375,-0.9605560302734375,0.004852294921875
1761585613040212500,4.97021240234375,-0.5050811767578125,-0.982513427734375,0.02789306640625
1761585613050186500,4.9801865234375,-0.4995269775390625,-0.9774017333984375,0.0463104248046875
1761585613060160500,4.990160400390625,-0.4936065673828125,-0.9676513671875,0.066162109375
1761585613070133500,5.000133544921875,-0.4906463623046875,-0.964263916015625,0.0809478759765625
1761585613080107500,5.010107421875,-0.485504150390625,-0.9669036865234375,0.0880584716796875
1761585613090081500,5.02008154296875,-0.4796600341796875,-0.9715728759765625,0.0823516845703125
1761585613100054500,5.030054443359375,-0.48602294921875,-0.9700164794921875,0.0537567138671875
1761585613110028500,5.040028564453125,-0.48370361328125,-0.9416046142578125,0.0086822509765625
1761585613120002600,5.05000244140625,-0.4596405029296875,-0.9105682373046875,-0.017578125
1761585613129976600,5.0599765625,-0.456756591796875,-0.893707275390625,-0.03131103515625
1761585613139949600,5.069949462890625,-0.4528045654296875,-0.8840789794921875,-0.0472259521484375
1761585613149923600,5.079923583984375,-0.45062255859375,-0.866607666015625,-0.0764617919921875
1761585613159897600,5.089897705078125,-0.45208740234375,-0.8345794677734375,-0.1036529541015625
1761585613169870300,5.099870361328125,-0.4510040283203125,-0.8123016357421875,-0.111297607421875
1761585613179844400,5.10984423828125,-0.464874267578125,-0.8201904296875,-0.0914459228515625
1761585613189818400,5.119818359375,-0.4679718017578125,-0.8271026611328125,-0.0757293701171875
1761585613199792400,5.12979248046875,-0.4546051025390625,-0.82666015625,-0.0775604248046875
1761585613209765400,5.139765380859375,-0.4544677734375,-0.851806640625,-0.0707244873046875
1761585613219739400,5.149739501953125,-0.4618682861328125,-0.8980255126953125,-0.04559326171875
1761585613229713400,5.15971337890625,-0.433868408203125,-0.9280853271484375,-0.0217437744140625
1761585613239687400,5.1696875,-0.409210205078125,-0.939453125,-0.0135650634765625
1761585613249660400,5.179660400390625,-0.39947509765625,-0.9530029296875,-0.00665283203125
1761585613259634400,5.189634521484375,-0.379669189453125,-0.9823455810546875,-0.0241546630859375
1761585613269608400,5.1996083984375,-0.37030029296875,-1.0103759765625,-0.0500946044921875
1761585613279581400,5.20958154296875,-0.3546600341796875,-1.0312347412109375,-0.05145263671875
1761585613289555500,5.219555419921875,-0.34259033203125,-1.0576324462890625,-0.0426483154296875
1761585613299529500,5.229529541015625,-0.33880615234375,-1.0433197021484375,-0.019775390625
1761585613309503500,5.23950341796875,-0.3414154052734375,-0.9820404052734375,-0.00054931640625
1761585613319476500,5.2494765625,-0.3440704345703125,-0.9633636474609375,0.006195068359375
1761585613329450500,5.259450439453125,-0.35150146484375,-0.944610595703125,0.0230712890625
1761585613339424300,5.26942431640625,-0.3354644775390625,-0.90423583984375,0.0652923583984375
1761585613349398300,5.279398193359375,-0.3336334228515625,-0.867034912109375,0.0904693603515625
1761585613359371500,5.28937158203125,-0.3392181396484375,-0.8717803955078125,0.1147918701171875
1761585613369345500,5.299345458984375,-0.3377532958984375,-0.923828125,0.1558990478515625
1761585613379319600,5.309319580078125,-0.3085784912109375,-0.99249267578125,0.2271575927734375
1761585613389292500,5.31929248046875,-0.23785400390625,-0.932891845703125,0.2723388671875
1761585613399266600,5.3292666015625,-0.2601470947265625,-0.7139739990234375,0.237335205078125
1761585613409240600,5.339240478515625,-0.317840576171875,-0.59356689453125,0.1866607666015625
1761585613419214600,5.349214599609375,-0.573822021484375,-0.5828857421875,0.1587371826171875
1761585613429187600,5.3591875,-0.8860015869140625,-0.6217498779296875,0.180206298828125
1761585613439161600,5.36916162109375,-0.8736114501953125,-0.834228515625,0.14453125
1761585613449135600,5.379135498046875,-0.6742401123046875,-0.8215789794921875,0.0435028076171875
1761585613459109600,5.389109619140625,-0.549102783203125,-0.7397613525390625,0.071441650390625
1761585613469082400,5.399082275390625,-0.5569305419921875,-0.758819580078125,0.0369720458984375
1761585613479056400,5.409056396484375,-0.601043701171875,-0.8053741455078125,-0.0139007568359375
1761585613489030400,5.419030517578125,-0.59210205078125,-0.7888031005859375,-0.0469818115234375
1761585613499003400,5.42900341796875,-0.502899169921875,-0.7264404296875,-0.01776123046875
1761585613508977400,5.438977294921875,-0.4368133544921875,-0.68243408203125,0.0535125732421875
1761585613518950000,5.448949951171875,-0.421905517578125,-0.6522369384765625,0.1342010498046875
1761585613528924000,5.458923828125,-0.4432373046875,-0.5975494384765625,0.2196197509765625
1761585613538897200,5.468897216796875,-0.49005126953125,-0.5476226806640625,0.29425048828125
1761585613548871200,5.47887109375,-0.588287353515625,-0.51361083984375,0.2943572998046875
1761585613558845000,5.488844970703125,-0.728607177734375,-0.468902587890625,0.2350616455078125
1761585613568818200,5.498818115234375,-0.7898712158203125,-0.4317474365234375,0.1717681884765625
1761585613578792200,5.508792236328125,-0.7380523681640625,-0.42193603515625,0.1210479736328125
1761585613588766200,5.51876611328125,-0.694549560546875,-0.4444122314453125,0.048492431640625
1761585613598740200,5.528740234375,-0.7061767578125,-0.4639892578125,-0.0289306640625
1761585613608713200,5.538713134765625,-0.75177001953125,-0.4810028076171875,-0.0850372314453125
1761585613618687200,5.548687255859375,-0.7621917724609375,-0.5,-0.1177520751953125
1761585613628661200,5.5586611328125,-0.79443359375,-0.516021728515625,-0.1214599609375
1761585613638635300,5.56863525390625,-0.84735107421875,-0.4986724853515625,-0.11016845703125
1761585613648608000,5.57860791015625,-0.89263916015625,-0.4360809326171875,-0.05804443359375
1761585613658582000,5.58858203125,-0.945343017578125,-0.383331298828125,0.0041351318359375
1761585613668556000,5.59855615234375,-0.989990234375,-0.4022674560546875,0.0211181640625
1761585613678529000,5.608529052734375,-0.9555511474609375,-0.432952880859375,-0.0214691162109375
1761585613688503000,5.6185029296875,-0.883026123046875,-0.43505859375,-0.0802001953125
1761585613698477000,5.62847705078125,-0.888885498046875,-0.4200286865234375,-0.1180877685546875
1761585613708451000,5.638451171875,-1.048583984375,-0.3712158203125,-0.085906982421875
1761585613718424000,5.648424072265625,-1.1368865966796875,-0.268035888671875,0.061676025390625
1761585613728398000,5.658398193359375,-1.07177734375,-0.1905059814453125,0.1707305908203125
1761585613738372000,5.6683720703125,-0.9305572509765625,-0.171722412109375,0.1222381591796875
1761585613748346000,5.67834619140625,-0.792938232421875,-0.1432037353515625,0.0555877685546875
1761585613758319000,5.688319091796875,-0.7334747314453125,-0.129791259765625,0.096588134765625
1761585613768293000,5.698293212890625,-0.775848388671875,-0.1473388671875,0.1559906005859375
1761585613778267100,5.70826708984375,-0.900848388671875,-0.1182861328125,0.222381591796875
1761585613788240100,5.718240234375,-0.9906463623046875,-0.0921478271484375,0.198089599609375
1761585613798214100,5.728214111328125,-0.974212646484375,-0.107421875,0.100982666015625
1761585613808188000,5.73818798828125,-0.95263671875,-0.154022216796875,0.0020294189453125
1761585613818162000,5.748161865234375,-0.974853515625,-0.15911865234375,-0.0787506103515625
1761585613828135000,5.758135009765625,-1.05853271484375,-0.129974365234375,-0.0880584716796875
1761585613838109000,5.76810888671875,-1.1703948974609375,-0.0806732177734375,-0.0107421875
1761585613848083000,5.7780830078125,-1.215240478515625,-0.024078369140625,0.0800628662109375
1761585613858056200,5.78805615234375,-1.18414306640625,-0.01611328125,0.1176605224609375
1761585613868030000,5.798030029296875,-1.099273681640625,-0.066070556640625,0.122589111328125
1761585613878004000,5.80800390625,-0.997344970703125,-0.06689453125,0.1090545654296875
1761585613887978000,5.81797802734375,-1.012542724609375,-0.0329437255859375,0.1131134033203125
1761585613897951200,5.827951171875,-1.09197998046875,-0.00225830078125,0.1271209716796875
1761585613907925200,5.83792529296875,-1.1584625244140625,0.0596160888671875,0.12518310546875
1761585613917899000,5.84789892578125,-1.1996917724609375,0.08770751953125,0.0684051513671875
1761585613927873000,5.857873046875,-1.145782470703125,0.0692596435546875,0.030059814453125
1761585613937846300,5.86784619140625,-1.00286865234375,-0.0025787353515625,0.0505523681640625
1761585613947820300,5.8778203125,-0.9092864990234375,-0.0354156494140625,0.1347198486328125
1761585613957794300,5.887794189453125,-0.8314666748046875,-0.00946044921875,0.2257080078125
1761585613967767000,5.89776708984375,-0.7892303466796875,-0.014495849609375,0.22442626953125
1761585613977741000,5.907740966796875,-0.8564910888671875,-0.0259857177734375,0.168365478515625
1761585613987715000,5.917715087890625,-0.925628662109375,-0.03472900390625,0.1488800048828125
1761585613997689000,5.927689208984375,-0.938720703125,-0.0565185546875,0.151611328125
1761585614007662000,5.937662109375,-0.9923858642578125,-0.044525146484375,0.2094268798828125
1761585614017636000,5.947635986328125,-1.082366943359375,-0.035614013671875,0.2205657958984375
1761585614027610000,5.957610107421875,-1.0471038818359375,-0.0194854736328125,0.207916259765625
1761585614037583000,5.9675830078125,-0.8444366455078125,-0.0080108642578125,0.2223358154296875
1761585614047557000,5.97755712890625,-0.71075439453125,-0.0032806396484375,0.2315521240234375
1761585614057531100,5.98753125,-0.5885467529296875,-0.083221435546875,0.230316162109375
1761585614067505200,5.997505126953125,-0.54144287109375,-0.160400390625,0.2112579345703125
1761585614077478100,6.00747802734375,-0.7105255126953125,-0.1849517822265625,0.231201171875
1761585614087452200,6.0174521484375,-0.8343353271484375,-0.2382659912109375,0.242462158203125
1761585614097426200,6.02742626953125,-0.848052978515625,-0.2697296142578125,0.2464599609375
1761585614107400200,6.037400146484375,-0.788787841796875,-0.2202606201171875,0.2530059814453125
1761585614117373000,6.047373046875,-0.7807464599609375,-0.2368927001953125,0.25653076171875
1761585614127347000,6.057346923828125,-0.7751312255859375,-0.3081512451171875,0.265594482421875
1761585614137321000,6.067321044921875,-0.7628631591796875,-0.3171844482421875,0.271331787109375
1761585614147294000,6.0772939453125,-0.824127197265625,-0.298492431640625,0.2818145751953125
1761585614157268000,6.08726806640625,-0.9834442138671875,-0.3447723388671875,0.3206329345703125
1761585614167242000,6.097241943359375,-1.4098358154296875,-0.4784088134765625,0.4036712646484375
1761585614177216000,6.107216064453125,-1.77899169921875,-0.6003265380859375,0.466583251953125
1761585614187189000,6.11718896484375,-1.509979248046875,-0.58367919921875,0.342437744140625
1761585614197163000,6.1271630859375,-1.0299530029296875,-0.4771881103515625,0.329376220703125
1761585614207137000,6.137136962890625,-0.7730865478515625,-0.4138031005859375,0.3402862548828125
1761585614217111000,6.147111083984375,-0.696746826171875,-0.37579345703125,0.3177947998046875
1761585614227084000,6.157083984375,-0.7398681640625,-0.3702239990234375,0.31787109375
1761585614237058000,6.16705810546875,-0.7658843994140625,-0.4150390625,0.3588104248046875
1761585614247032000,6.177031982421875,-0.826171875,-0.4880523681640625,0.3326568603515625
1761585614257005000,6.187005126953125,-0.8751983642578125,-0.5435791015625,0.321502685546875
1761585614266979000,6.19697900390625,-0.8711700439453125,-0.512481689453125,0.351806640625
1761585614276953000,6.206953125,-0.8497314453125,-0.401214599609375,0.4036102294921875
1761585614286927000,6.216927001953125,-0.7987823486328125,-0.316314697265625,0.440521240234375
1761585614296900000,6.226900146484375,-0.783905029296875,-0.3062896728515625,0.4568634033203125
1761585614306874000,6.2368740234375,-0.8091583251953125,-0.3189697265625,0.4637298583984375
1761585614316848000,6.24684814453125,-0.8308258056640625,-0.3560638427734375,0.4492950439453125
1761585614326821000,6.256821044921875,-0.8548583984375,-0.4117279052734375,0.435394287109375
1761585614336795100,6.266795166015625,-0.8958740234375,-0.4597320556640625,0.4477081298828125
1761585614346769200,6.27676904296875,-0.94964599609375,-0.481048583984375,0.4757232666015625
1761585614356743200,6.2867431640625,-0.985870361328125,-0.479583740234375,0.4776458740234375
1761585614366716200,6.296716064453125,-0.9719085693359375,-0.4572601318359375,0.432159423828125
1761585614376690200,6.306690185546875,-0.95013427734375,-0.451202392578125,0.386474609375
1761585614386664200,6.316664306640625,-0.898468017578125,-0.4502410888671875,0.368438720703125
1761585614396638200,6.32663818359375,-0.8526763916015625,-0.4368896484375,0.4033355712890625
1761585614406611000,6.33661083984375,-0.8304901123046875,-0.4239654541015625,0.4481353759765625
1761585614416585000,6.3465849609375,-0.8358306884765625,-0.4263763427734375,0.465606689453125
1761585614426559000,6.35655908203125,-0.878509521484375,-0.4323883056640625,0.452728271484375
1761585614436532000,6.366531982421875,-0.9609527587890625,-0.45648193359375,0.4076690673828125
1761585614446506000,6.376506103515625,-1.001708984375,-0.481842041015625,0.408935546875
1761585614456480000,6.38647998046875,-1.006561279296875,-0.4925994873046875,0.459930419921875
1761585614466454000,6.3964541015625,-0.9780731201171875,-0.524810791015625,0.4838104248046875
1761585614476427000,6.406427001953125,-0.950531005859375,-0.5341339111328125,0.471710205078125
1761585614486401000,6.416401123046875,-0.966064453125,-0.519866943359375,0.4302978515625
1761585614496375000,6.426375,-0.999969482421875,-0.495452880859375,0.3731231689453125
1761585614506348000,6.43634814453125,-1.01617431640625,-0.4569244384765625,0.30364990234375
1761585614516323300,6.4463232421875,-1.0653076171875,-0.3987884521484375,0.29852294921875
1761585614526297300,6.45629736328125,-1.1255340576171875,-0.361297607421875,0.3142242431640625
1761585614536271400,6.466271240234375,-1.2275848388671875,-0.3499298095703125,0.2782135009765625
1761585614546244400,6.476244384765625,-1.205413818359375,-0.3238067626953125,0.201904296875
1761585614556218400,6.48621826171875,-1.225738525390625,-0.304656982421875,0.13232421875
1761585614566192400,6.4961923828125,-1.2512359619140625,-0.27490234375,0.1080780029296875
1761585614576166400,6.50616650390625,-1.1903839111328125,-0.2234344482421875,0.0700836181640625
1761585614586139400,6.516139404296875,-1.108917236328125,-0.177825927734375,0.0294189453125
1761585614596113400,6.526113525390625,-1.0309295654296875,-0.1781768798828125,0.0073089599609375
1761585614606087400,6.53608740234375,-0.967315673828125,-0.242034912109375,0.031219482421875
1761585614616060200,6.54606005859375,-0.6402130126953125,-0.3869171142578125,0.293914794921875
1761585614626034200,6.5560341796875,-0.33135986328125,-0.3751983642578125,0.3215789794921875
1761585614636008200,6.56600830078125,-0.2834930419921875,-0.241058349609375,0.2484588623046875
1761585614645982200,6.575982177734375,-0.329071044921875,-0.1203155517578125,0.2760467529296875
1761585614655955200,6.585955078125,-0.4600830078125,-0.006317138671875,0.3144683837890625
1761585614665929200,6.59592919921875,-0.8100433349609375,0.1358184814453125,0.3508453369140625
1761585614675903200,6.6059033203125,-1.43365478515625,0.411376953125,0.7995147705078125
1761585614685877200,6.615877197265625,-1.3401031494140625,0.368896484375,1.393096923828125
1761585614695850500,6.6258505859375,-0.7702178955078125,-0.2693634033203125,0.6710662841796875
1761585614705824300,6.63582421875,-0.7448577880859375,-0.3555908203125,0.1296844482421875
1761585614715798300,6.64579833984375,-0.632354736328125,-0.1891937255859375,0.1316375732421875
1761585614725771500,6.655771484375,-0.76220703125,-0.1920166015625,0.1427459716796875
1761585614735745500,6.66574560546875,-0.8561248779296875,-0.1602325439453125,0.1474609375
1761585614745719600,6.675719482421875,-0.9533538818359375,-0.174285888671875,0.1742095947265625
1761585614755693300,6.685693359375,-1.302886962890625,-0.17376708984375,0.2573089599609375
1761585614765666300,6.695666259765625,-1.5085296630859375,-0.1192169189453125,0.4155731201171875
1761585614775640300,6.705640380859375,-1.1111297607421875,-0.0959625244140625,0.426177978515625
1761585614785614300,6.7156142578125,-0.8355560302734375,-0.128143310546875,0.311065673828125
1761585614795587300,6.72558740234375,-0.8488616943359375,-0.1636199951171875,0.2718658447265625
1761585614805561300,6.735561279296875,-0.9521026611328125,-0.1134490966796875,0.2833251953125
1761585614815535400,6.745535400390625,-1.0995635986328125,-0.0469512939453125,0.277252197265625
1761585614825509400,6.75550927734375,-1.110504150390625,-0.0327301025390625,0.2152557373046875
1761585614835482400,6.765482421875,-1.013702392578125,-0.092742919921875,0.1417999267578125
1761585614845456400,6.775456298828125,-0.96832275390625,-0.18072509765625,0.1241455078125
1761585614855430400,6.785430419921875,-0.91619873046875,-0.2253570556640625,0.1720123291015625
1761585614865404400,6.795404296875,-0.8590545654296875,-0.1988983154296875,0.254730224609375
1761585614875377400,6.80537744140625,-0.83673095703125,-0.19952392578125,0.3345489501953125
1761585614885351400,6.815351318359375,-0.842254638671875,-0.2603302001953125,0.36810302734375
1761585614895325400,6.825325439453125,-0.8454742431640625,-0.2891082763671875,0.33355712890625
1761585614905298200,6.835298095703125,-0.8473358154296875,-0.3028717041015625,0.2637786865234375
1761585614915272200,6.845272216796875,-0.889434814453125,-0.36383056640625,0.2670135498046875
1761585614925246200,6.85524609375,-0.8065032958984375,-0.4049224853515625,0.3275299072265625
1761585614935220200,6.86522021484375,-0.750946044921875,-0.377105712890625,0.296661376953125
1761585614945193200,6.875193115234375,-0.89434814453125,-0.4076385498046875,0.2108917236328125
1761585614955167200,6.885167236328125,-0.9561004638671875,-0.44744873046875,0.166168212890625
1761585614965141200,6.895141357421875,-0.997222900390625,-0.4704132080078125,0.1191253662109375
1761585614975115300,6.905115234375,-1.066162109375,-0.4931793212890625,0.042236328125
1761585614985088300,6.915088134765625,-1.0576171875,-0.4602203369140625,-0.0311126708984375
1761585614995062300,6.925062255859375,-0.8578338623046875,-0.3944549560546875,-0.11383056640625
1761585615005036300,6.935036376953125,-0.767333984375,-0.4078521728515625,-0.3061981201171875
1761585615015009300,6.94500927734375,-0.89581298828125,-0.43377685546875,-0.30889892578125
1761585615024983300,6.9549833984375,-0.997711181640625,-0.476654052734375,-0.2075042724609375
1761585615034957300,6.964957275390625,-1.0038604736328125,-0.513458251953125,-0.1346588134765625
1761585615044931300,6.974931396484375,-0.9714202880859375,-0.4454498291015625,-0.1083831787109375
1761585615054904300,6.984904296875,-0.8992919921875,-0.358154296875,-0.1132659912109375
1761585615064878300,6.99487841796875,-0.8516998291015625,-0.2868804931640625,-0.0675201416015625
1761585615074852400,7.004852294921875,-0.9358673095703125,-0.3145904541015625,0.0411529541015625
1761585615084826000,7.014826171875,-0.880401611328125,-0.317535400390625,-0.0244903564453125
1761585615094799400,7.02479931640625,-0.7393341064453125,-0.27349853515625,0.049163818359375
1761585615104773400,7.0347734375,-0.7841033935546875,-0.33837890625,0.2862701416015625
1761585615114747400,7.044747314453125,-0.8777008056640625,-0.4742584228515625,0.13409423828125
1761585615124720400,7.054720458984375,-0.9342193603515625,-0.444732666015625,0.00714111328125
1761585615134694400,7.0646943359375,-0.9593353271484375,-0.3936309814453125,0.0131988525390625
1761585615144668400,7.07466845703125,-0.9243927001953125,-0.3567657470703125,0.0433349609375
1761585615154642400,7.084642333984375,-0.902496337890625,-0.380126953125,0.0382080078125
1761585615164615400,7.094615478515625,-0.8982391357421875,-0.4257049560546875,-0.07275390625
1761585615174589400,7.10458935546875,-0.8687744140625,-0.4477081298828125,-0.114471435546875
1761585615184563500,7.1145634765625,-0.838775634765625,-0.441741943359375,-0.0743865966796875
1761585615194536200,7.1245361328125,-0.8601531982421875,-0.4534759521484375,-0.1144866943359375
1761585615204510200,7.13451025390625,-0.993804931640625,-0.458404541015625,-0.1571502685546875
1761585615214484200,7.144484130859375,-0.943511962890625,-0.440704345703125,-0.2460479736328125
1761585615224458200,7.154458251953125,-0.904022216796875,-0.4875335693359375,-0.39788818359375
1761585615234431200,7.16443115234375,-1.0017852783203125,-0.5236663818359375,-0.3907012939453125
1761585615244405200,7.1744052734375,-0.9276275634765625,-0.4545135498046875,-0.335693359375
1761585615254379300,7.184379150390625,-0.733917236328125,-0.27587890625,-0.2964019775390625
1761585615264353300,7.194353271484375,-0.79852294921875,-0.2265625,-0.1431884765625
1761585615274326300,7.204326171875,-0.83966064453125,-0.492584228515625,-0.3443603515625
1761585615284300300,7.21430029296875,-0.832611083984375,-0.676544189453125,-0.5397796630859375
1761585615294274300,7.2242744140625,-0.6799468994140625,-0.668426513671875,-0.5209503173828125
1761585615304247300,7.234247314453125,-0.58416748046875,-0.4229888916015625,-0.6296539306640625
1761585615314221300,7.24422119140625,-0.4948272705078125,-0.411376953125,-0.6259002685546875
1761585615324195300,7.2541953125,-0.51849365234375,-0.6341094970703125,-0.6275482177734375
1761585615334169300,7.26416943359375,-0.681243896484375,-0.7725067138671875,-0.746551513671875
1761585615344142300,7.274142333984375,-0.8027801513671875,-0.69329833984375,-0.77142333984375
1761585615354116400,7.284116455078125,-0.7713623046875,-0.40667724609375,-0.7887420654296875
1761585615364090400,7.29409033203125,-0.5896453857421875,-0.1678924560546875,-0.7391204833984375
1761585615374064400,7.304064453125,-0.4028472900390625,-0.187530517578125,-0.6044158935546875
1761585615384037400,7.314037353515625,-0.4213409423828125,-0.318115234375,-0.5469207763671875
1761585615394011100,7.32401123046875,-0.4694061279296875,-0.3766326904296875,-0.5453033447265625
1761585615403985200,7.333985107421875,-0.580352783203125,-0.300811767578125,-0.65814208984375
1761585615413958400,7.34395849609375,-0.719879150390625,-0.1694793701171875,-0.848052978515625
1761585615423932400,7.353932373046875,-0.7090301513671875,-0.2296905517578125,-0.8421630859375
1761585615433906400,7.363906494140625,-0.70758056640625,-0.2942962646484375,-0.8519744873046875
1761585615443880200,7.373880126953125,-0.725738525390625,-0.26934814453125,-0.884979248046875
1761585615453853400,7.383853515625,-0.6829071044921875,-0.2241058349609375,-0.843902587890625
1761585615463827500,7.393827392578125,-0.72247314453125,-0.22918701171875,-0.7539825439453125
1761585615473801500,7.403801513671875,-0.796051025390625,-0.2467803955078125,-0.70794677734375
1761585615483775500,7.413775390625,-0.9653778076171875,-0.200836181640625,-0.652313232421875
1761585615493748500,7.42374853515625,-1.4371185302734375,-0.0068817138671875,-0.4766082763671875
1761585615503722500,7.433722412109375,-1.257171630859375,-0.011474609375,-0.2833251953125
1761585615513695500,7.443695556640625,-0.8665924072265625,-0.1077880859375,-0.153228759765625
1761585615523668500,7.45366845703125,-0.8449554443359375,-0.1717681884765625,-0.2860565185546875
1761585615533642500,7.463642578125,-0.59765625,-0.2539215087890625,-0.5486907958984375
1761585615543616500,7.473616455078125,-0.384033203125,-0.5626983642578125,-0.9399261474609375
1761585615553590500,7.483590576171875,-0.019683837890625,-0.933380126953125,-1.10308837890625
1761585615563563500,7.4935634765625,0.1323699951171875,-0.8862457275390625,-1.2443695068359375
1761585615573537500,7.50353759765625,-0.5023193359375,-0.572784423828125,-0.96875
1761585615583511600,7.513511474609375,-0.8455352783203125,-0.3682861328125,-0.3687744140625
1761585615593485600,7.523485595703125,-1.00634765625,-0.273162841796875,-0.1969146728515625
1761585615603458600,7.53345849609375,-1.159027099609375,-0.1373443603515625,-0.3808135986328125
1761585615613432600,7.5434326171875,-1.201171875,-0.11016845703125,-0.43603515625
1761585615623406600,7.553406494140625,-0.98406982421875,-0.193450927734375,-0.5137176513671875
1761585615633379600,7.563379638671875,-0.5560302734375,-0.3278961181640625,-0.63616943359375
1761585615643353300,7.573353271484375,-0.259246826171875,-0.4782562255859375,-0.673187255859375
1761585615653327400,7.583327392578125,-0.2056732177734375,-0.6400299072265625,-0.64215087890625
1761585615663301400,7.59330126953125,-0.1823272705078125,-0.7921600341796875,-0.6445770263671875
1761585615673274600,7.603274658203125,-0.1750640869140625,-0.841644287109375,-0.7098388671875
1761585615683248600,7.61324853515625,-0.16143798828125,-0.7306671142578125,-0.6278839111328125
1761585615693222400,7.623222412109375,-0.425537109375,-0.567901611328125,-0.50628662109375
1761585615703195600,7.633195556640625,-0.733917236328125,-0.4608917236328125,-0.4700775146484375
1761585615713169700,7.643169677734375,-0.890411376953125,-0.3804779052734375,-0.41168212890625
1761585615723143700,7.653143798828125,-0.917449951171875,-0.3090057373046875,-0.3563690185546875
1761585615733117700,7.66311767578125,-0.8907318115234375,-0.4064178466796875,-0.2953948974609375
1761585615743090700,7.673090576171875,-0.625274658203125,-0.4451751708984375,-0.3856201171875
1761585615753064700,7.683064697265625,-0.2573089599609375,-0.5752716064453125,-0.4700469970703125
1761585615763038700,7.693038818359375,-0.1416168212890625,-0.8013916015625,-0.435638427734375
1761585615773012700,7.7030126953125,-0.16497802734375,-0.94207763671875,-0.407562255859375
1761585615782985700,7.71298583984375,-0.1921844482421875,-0.977569580078125,-0.411468505859375
1761585615792959700,7.722959716796875,-0.27923583984375,-0.9072418212890625,-0.3798370361328125
1761585615802933800,7.732933837890625,-0.3636322021484375,-0.8542633056640625,-0.264556884765625
1761585615812906500,7.742906494140625,-0.413360595703125,-0.8076934814453125,-0.1905059814453125
1761585615822880500,7.752880615234375,-0.1150054931640625,-0.849456787109375,-0.0866241455078125
1761585615832854500,7.7628544921875,-0.11346435546875,-0.927398681640625,-0.12841796875
1761585615842828500,7.77282861328125,0.1777496337890625,-0.9282684326171875,-0.2367706298828125
1761585615852801500,7.782801513671875,0.0491180419921875,-0.9304046630859375,-0.150238037109375
1761585615862775600,7.792775634765625,-0.23101806640625,-0.8665924072265625,-0.0724334716796875
1761585615872749600,7.80274951171875,-0.3912353515625,-0.8777008056640625,0.025299072265625
1761585615882723600,7.8127236328125,-0.377349853515625,-0.999267578125,0.084075927734375
1761585615892696600,7.822696533203125,-0.24774169921875,-1.0786285400390625,0.07684326171875
1761585615902670600,7.832670654296875,-0.1091156005859375,-1.1240692138671875,0.0746002197265625
1761585615912644600,7.84264453125,-0.0517425537109375,-1.16912841796875,0.0821685791015625
1761585615922617600,7.85261767578125,-0.0655517578125,-1.1738739013671875,0.0779876708984375
1761585615932591600,7.862591552734375,-0.0839996337890625,-1.1615753173828125,0.073516845703125
1761585615942565600,7.872565673828125,-0.08038330078125,-1.14044189453125,0.1144561767578125
1761585615952539600,7.88253955078125,0.0214385986328125,-1.052154541015625,0.129119873046875
1761585615962512400,7.892512451171875,-0.052001953125,-1.057952880859375,0.1419219970703125
1761585615972486400,7.902486328125,0.0301055908203125,-1.0851593017578125,0.240570068359375
1761585615982460400,7.91246044921875,0.0050811767578125,-1.0688018798828125,0.283416748046875
1761585615992434400,7.922434326171875,-0.117950439453125,-1.0936279296875,0.2728424072265625
1761585616002407400,7.932407470703125,-0.2521209716796875,-1.0997772216796875,0.322052001953125
1761585616012381400,7.94238134765625,-0.2835540771484375,-1.05657958984375,0.4232940673828125
1761585616022355500,7.95235546875,-0.2689056396484375,-0.949432373046875,0.5211334228515625
1761585616032328700,7.96232861328125,-0.285797119140625,-0.830352783203125,0.61334228515625
1761585616042302700,7.972302734375,-0.2480926513671875,-0.7419281005859375,0.682769775390625
1761585616052276700,7.98227685546875,-0.16424560546875,-0.70123291015625,0.7028045654296875
1761585616062250500,7.99225048828125,-0.1100616455078125,-0.7106781005859375,0.685302734375
1761585616072223700,8.0022236328125,-0.0684051513671875,-0.796875,0.687835693359375
1761585616082197800,8.01219775390625,-0.155609130859375,-0.9155426025390625,0.7012939453125
1761585616092171800,8.022171875,-0.2054443359375,-0.98504638671875,0.715667724609375
1761585616102144500,8.03214453125,-0.1874847412109375,-0.9636993408203125,0.6796722412109375
1761585616112118500,8.042118408203125,-0.1927947998046875,-0.8956146240234375,0.6368560791015625
1761585616122092500,8.052092529296875,-0.226806640625,-0.812347412109375,0.689483642578125
1761585616132066600,8.062066650390625,-0.18292236328125,-0.7164764404296875,0.7994232177734375
1761585616142039600,8.07203955078125,-0.1269378662109375,-0.643341064453125,0.835784912109375
1761585616152013600,8.082013671875,-0.16253662109375,-0.613189697265625,0.80126953125
1761585616161987600,8.091987548828126,-0.2317352294921875,-0.5936737060546875,0.7531280517578125
1761585616171961600,8.101961669921875,-0.2731170654296875,-0.55828857421875,0.738861083984375
1761585616181934600,8.1119345703125,-0.308868408203125,-0.523101806640625,0.7642059326171875
1761585616191908600,8.12190869140625,-0.3680419921875,-0.50250244140625,0.84283447265625
1761585616201882600,8.131882568359375,-0.3260345458984375,-0.460906982421875,0.8645477294921875
1761585616211855600,8.141855712890624,-0.3685302734375,-0.3966827392578125,0.8246612548828125
1761585616221829600,8.15182958984375,-0.3825836181640625,-0.33966064453125,0.853729248046875
1761585616231803600,8.1618037109375,-0.3380889892578125,-0.2634429931640625,0.9471435546875
1761585616241777700,8.171777587890626,-0.28302001953125,-0.214996337890625,1.0009918212890625
1761585616251750400,8.18175048828125,-0.29522705078125,-0.2120361328125,1.007110595703125
1761585616261724400,8.191724365234375,-0.297027587890625,-0.2335052490234375,0.9937896728515625
1761585616271698400,8.201698486328125,-0.258209228515625,-0.2393646240234375,0.9750823974609375
1761585616281672400,8.21167236328125,-0.229278564453125,-0.226715087890625,0.9380035400390625
1761585616291645400,8.2216455078125,-0.2817535400390625,-0.1759185791015625,0.871429443359375
1761585616301619500,8.231619384765626,-0.339996337890625,-0.099853515625,0.804443359375
1761585616311593500,8.241593505859376,-0.3497314453125,-0.038360595703125,0.7989654541015625
1761585616321566500,8.25156640625,-0.3449859619140625,-0.0086822509765625,0.8317718505859375
1761585616331540500,8.26154052734375,-0.375335693359375,0.02020263671875,0.8895416259765625
1761585616341514500,8.271514404296875,-0.3775177001953125,0.083984375,0.9266204833984375
1761585616351488500,8.281488525390625,-0.3372344970703125,0.1732635498046875,0.945404052734375
1761585616361461800,8.291461669921874,-0.2730255126953125,0.241851806640625,0.9771575927734375
1761585616371435500,8.301435546875,-0.2482147216796875,0.244903564453125,1.0250244140625
1761585616381409500,8.311409423828126,-0.276702880859375,0.2165985107421875,1.062347412109375
1761585616391383600,8.321383544921876,-0.3083953857421875,0.18670654296875,1.0371856689453125
1761585616401356800,8.331356689453125,-0.3434906005859375,0.1618804931640625,0.930908203125
1761585616411330600,8.34133056640625,-0.3967132568359375,0.1416168212890625,0.8226470947265625
1761585616421304600,8.3513046875,-0.4617767333984375,0.128662109375,0.804229736328125
1761585616431277600,8.361277587890624,-0.455047607421875,0.1747283935546875,0.868682861328125
1761585616441251600,8.37125146484375,-0.334075927734375,0.228851318359375,0.8951568603515625
1761585616451225600,8.3812255859375,-0.2977447509765625,0.2343902587890625,0.8303070068359375
1761585616461199600,8.39119970703125,-0.4148406982421875,0.2200775146484375,0.7243804931640625
1761585616471172600,8.401172607421875,-0.4687652587890625,0.21441650390625,0.6276092529296875
1761585616481146600,8.411146728515625,-0.5135345458984375,0.242828369140625,0.614349365234375
1761585616491120600,8.42112060546875,-0.4985504150390625,0.252349853515625,0.695037841796875
1761585616501093600,8.43109375,-0.4229736328125,0.2550201416015625,0.773681640625
1761585616511067600,8.441067626953124,-0.3892822265625,0.2677001953125,0.825958251953125
1761585616521041700,8.451041748046874,-0.40155029296875,0.28009033203125,0.8773193359375
1761585616531015700,8.461015625,-0.393035888671875,0.3094940185546875,0.9020233154296875
1761585616540988700,8.47098876953125,-0.3756103515625,0.334259033203125,0.882171630859375
1761585616550962700,8.480962646484375,-0.376251220703125,0.3536224365234375,0.8598175048828125
1761585616560936700,8.490936767578125,-0.34844970703125,0.3677520751953125,0.84368896484375
1761585616570910700,8.50091064453125,-0.3559722900390625,0.3574676513671875,0.8162384033203125
1761585616580883700,8.5108837890625,-0.45269775390625,0.3242950439453125,0.8170318603515625
1761585616590857700,8.520857666015624,-0.4750518798828125,0.341583251953125,0.8134307861328125
1761585616600831700,8.530831787109374,-0.4855804443359375,0.4051361083984375,0.795745849609375
1761585616610804700,8.5408046875,-0.481903076171875,0.4567413330078125,0.81048583984375
1761585616620778800,8.55077880859375,-0.4448089599609375,0.46673583984375,0.789520263671875
1761585616630752800,8.560752685546875,-0.4287567138671875,0.4553375244140625,0.7746734619140625
1761585616640726800,8.570726806640625,-0.4004669189453125,0.4492340087890625,0.8118743896484375
1761585616650699500,8.580699462890625,-0.3161163330078125,0.4355926513671875,0.8510894775390625
1761585616660673500,8.590673583984374,-0.3166046142578125,0.4252471923828125,0.855621337890625
1761585616670647600,8.6006474609375,-0.34393310546875,0.4295806884765625,0.819854736328125
1761585616680621600,8.61062158203125,-0.333251953125,0.5195465087890625,0.6291961669921875
1761585616690594600,8.620594482421875,-0.3595123291015625,0.47674560546875,0.5596771240234375
1761585616700568600,8.630568603515625,-0.3203887939453125,0.4050750732421875,0.45880126953125
1761585616710543600,8.640543701171875,-0.3543701171875,0.3602142333984375,0.486236572265625
1761585616720517600,8.650517578125,-0.3607940673828125,0.3826904296875,0.6553192138671875
1761585616730491600,8.66049169921875,-0.3398284912109375,0.4737396240234375,0.7977294921875
1761585616740464600,8.670464599609375,-0.31475830078125,0.536407470703125,0.8821563720703125
1761585616750438700,8.680438720703124,-0.271942138671875,0.540802001953125,0.926910400390625
1761585616760412700,8.69041259765625,-0.2050018310546875,0.510223388671875,0.9423370361328125
1761585616770385700,8.7003857421875,-0.1723785400390625,0.44793701171875,1.0325927734375
1761585616780359700,8.710359619140625,-0.189697265625,0.3991851806640625,1.127655029296875
1761585616790333700,8.720333740234375,-0.1153106689453125,0.3798370361328125,1.20721435546875
1761585616800307700,8.7303076171875,-0.0929718017578125,0.3240509033203125,1.2497100830078125
1761585616810280700,8.74028076171875,-0.10614013671875,0.26580810546875,1.207733154296875
1761585616820254700,8.750254638671874,-0.0955352783203125,0.2786712646484375,1.1050262451171875
1761585616830228700,8.760228759765624,-0.10791015625,0.378997802734375,1.0030975341796875
1761585616840202800,8.77020263671875,-0.0793304443359375,0.5378875732421875,0.838409423828125
1761585616850175700,8.78017578125,-0.0866241455078125,0.6524658203125,0.6506805419921875
1761585616860149500,8.7901494140625,-0.1330108642578125,0.6701812744140625,0.5172119140625
1761585616870123500,8.80012353515625,-0.2454681396484375,0.6438140869140625,0.4498748779296875
1761585616880096800,8.8100966796875,-0.35845947265625,0.5780181884765625,0.561767578125
1761585616890070800,8.82007080078125,-0.304168701171875,0.457916259765625,0.677642822265625
1761585616900044800,8.830044921875,-0.21923828125,0.3549346923828125,0.7458648681640625
1761585616910018600,8.8400185546875,-0.2198486328125,0.3328704833984375,0.8012542724609375
1761585616919991800,8.84999169921875,-0.2457275390625,0.3722991943359375,0.8107452392578125
1761585616929965800,8.8599658203125,-0.247222900390625,0.4253387451171875,0.7987823486328125
1761585616939939800,8.86993994140625,-0.314788818359375,0.4925079345703125,0.8333740234375
1761585616949913900,8.879913818359375,-0.458221435546875,0.5481414794921875,0.86700439453125
1761585616959886800,8.889886962890625,-0.5001373291015625,0.5581817626953125,0.8376617431640625
1761585616969860900,8.89986083984375,-0.43426513671875,0.551513671875,0.8295135498046875
1761585616979835000,8.9098349609375,-0.373687744140625,0.5086517333984375,0.846923828125
1761585616989807600,8.9198076171875,-0.374267578125,0.436248779296875,0.7855682373046875
1761585616999781600,8.92978173828125,-0.388458251953125,0.398590087890625,0.67889404296875
1761585617009755600,8.939755615234375,-0.390960693359375,0.4375457763671875,0.6644134521484375
1761585617019729700,8.949729736328125,-0.41632080078125,0.5302276611328125,0.75482177734375
1761585617029702700,8.95970263671875,-0.4162750244140625,0.6243133544921875,0.85400390625
1761585617039676700,8.9696767578125,-0.3096771240234375,0.671661376953125,0.941131591796875
1761585617049650700,8.979650634765624,-0.2120361328125,0.640655517578125,0.997039794921875
1761585617059624700,8.989624755859374,-0.21551513671875,0.532470703125,0.9792327880859375
1761585617069597700,8.99959765625,-0.2108917236328125,0.3867034912109375,0.911346435546875
1761585617079571700,9.00957177734375,-0.2507171630859375,0.2965240478515625,0.8656463623046875
1761585617089545700,9.019545654296875,-0.2834320068359375,0.2726593017578125,0.8218536376953125
1761585617099518700,9.029518798828125,-0.2404327392578125,0.262481689453125,0.8018035888671875
1761585617109492700,9.03949267578125,-0.1757049560546875,0.274200439453125,0.8072357177734375
1761585617119466800,9.049466796875,-0.181365966796875,0.271087646484375,0.8105316162109375
1761585617129440800,9.059440673828124,-0.2311248779296875,0.3227386474609375,0.8545074462890625
1761585617139413500,9.06941357421875,-0.244842529296875,0.384429931640625,0.878204345703125
1761585617149387500,9.079387451171876,-0.2299652099609375,0.3966217041015625,0.8321380615234375
1761585617159361500,9.089361572265625,-0.236083984375,0.40185546875,0.7945556640625
1761585617169334500,9.09933447265625,-0.1905517578125,0.407928466796875,0.8870849609375
1761585617179308500,9.10930859375,-0.0794677734375,0.3820037841796875,0.9260406494140625
1761585617189282600,9.119282470703125,-0.0643463134765625,0.2904815673828125,0.9100189208984375
1761585617199256600,9.129256591796874,-0.09326171875,0.2021942138671875,0.917205810546875
1761585617209229800,9.139229736328126,-0.1613006591796875,0.200775146484375,0.9966888427734375
1761585617219203600,9.14920361328125,-0.156036376953125,0.205474853515625,1.0575714111328125
1761585617229177600,9.159177490234375,-0.1319732666015625,0.1791534423828125,1.09490966796875
1761585617239151600,9.169151611328125,-0.079376220703125,0.1488037109375,1.1043701171875
1761585617249124900,9.179124755859375,-0.0161590576171875,0.124755859375,1.0341339111328125
1761585617259099000,9.189098876953125,-0.0455780029296875,0.106658935546875,0.968414306640625
1761585617269073000,9.199072998046875,-0.1979217529296875,0.149139404296875,0.9931182861328125
1761585617279046000,9.2090458984375,-0.2177734375,0.1668548583984375,1.0274658203125
1761585617289019600,9.21901953125,-0.1731414794921875,0.1516571044921875,1.0583953857421875
1761585617298993700,9.22899365234375,-0.1403350830078125,0.130401611328125,1.1080169677734375
1761585617308967700,9.2389677734375,-0.1269989013671875,0.1066436767578125,1.1450958251953125
1761585617318940700,9.248940673828125,-0.1016998291015625,0.067626953125,1.1251373291015625
1761585617328914700,9.258914794921875,-0.0888519287109375,0.0393829345703125,1.082305908203125
1761585617338888700,9.268888671875,-0.1469268798828125,0.0433197021484375,1.0538482666015625
1761585617348862700,9.27886279296875,-0.1840667724609375,0.049163818359375,1.016632080078125
1761585617358835700,9.288835693359376,-0.2186126708984375,0.0617523193359375,0.978973388671875
1761585617368809700,9.298809814453126,-0.2942657470703125,0.0943145751953125,0.9653472900390625
1761585617378783700,9.30878369140625,-0.279998779296875,0.1110382080078125,0.961578369140625
1761585617388756700,9.3187568359375,-0.183013916015625,0.102996826171875,0.9775848388671875
1761585617398730800,9.328730712890625,-0.11773681640625,0.075408935546875,0.9895172119140625
1761585617408704800,9.338704833984375,-0.1231689453125,0.022003173828125,0.9761810302734375
1761585617418678800,9.3486787109375,-0.1815948486328125,-0.035980224609375,0.9652252197265625
1761585617428651800,9.35865185546875,-0.17193603515625,-0.0610504150390625,1.0052490234375
1761585617438625800,9.368625732421876,-0.1087493896484375,-0.0689849853515625,1.0588836669921875
1761585617448599800,9.378599853515626,-0.08197021484375,-0.0602874755859375,1.0485687255859375
1761585617458572500,9.388572509765625,-0.0834808349609375,-0.053985595703125,1.01800537109375
1761585617468546600,9.398546630859375,-0.09820556640625,-0.048583984375,1.0023040771484375
1761585617478520600,9.4085205078125,-0.1095428466796875,-0.0426177978515625,0.9885711669921875
1761585617488494600,9.41849462890625,-0.1142120361328125,-0.04522705078125,0.9792633056640625
1761585617498467600,9.428467529296874,-0.1161346435546875,-0.052947998046875,0.9631805419921875
1761585617508441600,9.438441650390626,-0.1251373291015625,-0.054840087890625,0.9393310546875
1761585617518415000,9.4484150390625,-0.1299285888671875,-0.054443359375,0.937103271484375
1761585617528389000,9.45838916015625,-0.136810302734375,-0.0597686767578125,0.94805908203125
1761585617538362400,9.4683623046875,-0.1430511474609375,-0.0809173583984375,0.9470672607421875
1761585617548336400,9.47833642578125,-0.1529693603515625,-0.0923004150390625,0.9398193359375
1761585617558310100,9.48831005859375,-0.1834869384765625,-0.0832672119140625,0.93463134765625
1761585617568283400,9.498283447265624,-0.167449951171875,-0.07470703125,0.944549560546875
1761585617578257400,9.50825732421875,-0.1177825927734375,-0.0851593017578125,0.9810638427734375
1761585617588231400,9.5182314453125,-0.0921630859375,-0.106353759765625,1.00823974609375
1761585617598205400,9.528205322265626,-0.0922088623046875,-0.1165771484375,1.01275634765625
1761585617608178400,9.538178466796875,-0.030731201171875,-0.0965423583984375,1.010498046875
1761585617618152400,9.54815234375,0.0150604248046875,-0.049896240234375,0.98028564453125
1761585617628126500,9.55812646484375,-0.0320892333984375,-0.054046630859375,0.9401397705078125
1761585617638100500,9.5681005859375,-0.10955810546875,-0.0838623046875,0.934234619140625
1761585617648073500,9.578073486328124,-0.1552734375,-0.1094970703125,0.9669342041015625
1761585617658047500,9.588047607421874,-0.145050048828125,-0.1306915283203125,1.002532958984375
1761585617668021500,9.598021484375,-0.1030120849609375,-0.16790771484375,0.9832000732421875
1761585617677994200,9.607994140625,-0.052032470703125,-0.1877899169921875,0.9491424560546875
1761585617687968300,9.61796826171875,-0.0227203369140625,-0.1869964599609375,0.9355926513671875
1761585617697942300,9.6279423828125,-0.033294677734375,-0.2011871337890625,0.941558837890625
1761585617707916300,9.637916259765625,-0.01922607421875,-0.219879150390625,0.9485321044921875
1761585617717889300,9.64788916015625,0.052764892578125,-0.21722412109375,0.9838409423828125
1761585617727863300,9.65786328125,0.097442626953125,-0.22906494140625,1.010009765625
1761585617737837300,9.66783740234375,0.0828704833984375,-0.238677978515625,0.9746856689453125
1761585617747811300,9.677811279296876,0.053985595703125,-0.2410888671875,0.919097900390625
1761585617757784300,9.687784423828125,0.0338134765625,-0.2586669921875,0.900146484375
1761585617767758300,9.69775830078125,0.037109375,-0.2753143310546875,0.9054412841796875
1761585617777732400,9.707732421875,0.02593994140625,-0.2809295654296875,0.92779541015625
1761585617787705300,9.717705322265624,-0.0368804931640625,-0.2899169921875,0.9913330078125
1761585617797679400,9.727679443359374,-0.0401763916015625,-0.2860870361328125,1.0304718017578125
1761585617807653400,9.7376533203125,-0.031036376953125,-0.2520294189453125,0.98919677734375
1761585617817627400,9.74762744140625,-0.031829833984375,-0.231414794921875,0.93133544921875
1761585617827600100,9.75760009765625,-0.0421600341796875,-0.2490234375,0.918670654296875
1761585617837574100,9.76757421875,-0.0278472900390625,-0.25872802734375,0.9331207275390625
1761585617847548200,9.777548095703125,0.0358734130859375,-0.2588958740234375,0.953277587890625
1761585617857521400,9.787521484375,0.0337371826171875,-0.2850799560546875,0.9709930419921875
1761585617867495400,9.797495361328124,-0.00164794921875,-0.3008880615234375,0.9864501953125
1761585617877469200,9.80746923828125,0.0229644775390625,-0.297149658203125,0.982666015625
1761585617887443200,9.817443115234376,0.05780029296875,-0.306610107421875,0.9509429931640625
1761585617897416400,9.82741650390625,0.0644683837890625,-0.3409271240234375,0.925018310546875
1761585617907390500,9.837390380859375,0.072174072265625,-0.3558807373046875,0.9289398193359375
1761585617917364500,9.847364501953125,0.1128692626953125,-0.3626708984375,0.972900390625
1761585617927338200,9.857338134765625,0.11407470703125,-0.3708343505859375,0.995025634765625
1761585617937311500,9.8673115234375,0.064361572265625,-0.3514862060546875,0.9803619384765625
1761585617947285500,9.877285400390624,0.0474853515625,-0.3309326171875,0.971588134765625
1761585617957259500,9.887259521484374,0.0587921142578125,-0.34033203125,0.988983154296875
1761585617967232300,9.897232177734375,0.093780517578125,-0.3699493408203125,0.9996490478515625
1761585617977206300,9.907206298828125,0.117950439453125,-0.3986968994140625,0.985107421875
1761585617987180300,9.91718017578125,0.11578369140625,-0.416168212890625,0.96868896484375
1761585617997154300,9.927154296875,0.0975189208984375,-0.434051513671875,0.97308349609375
1761585618007127300,9.937127197265625,0.0937957763671875,-0.4466705322265625,0.97918701171875
1761585618017101300,9.947101318359374,0.1022796630859375,-0.4584808349609375,0.955718994140625
1761585618027075300,9.957075439453124,0.1085968017578125,-0.473968505859375,0.9152374267578125
1761585618037049300,9.96704931640625,0.1136627197265625,-0.5050201416015625,0.8856048583984375
1761585618047022300,9.977022216796875,0.1258392333984375,-0.5401763916015625,0.87945556640625
1761585618056996400,9.986996337890625,0.15380859375,-0.5617828369140625,0.8543548583984375
1761585618066970400,9.996970458984375,0.158966064453125,-0.563720703125,0.83343505859375
1761585618076943400,10.006943359375,0.1576995849609375,-0.562408447265625,0.8343505859375
1761585618086917400,10.01691748046875,0.1420135498046875,-0.5904693603515625,0.824859619140625
1761585618096891400,10.026891357421874,0.105804443359375,-0.5955963134765625,0.7993011474609375
1761585618106865400,10.036865478515624,0.0938262939453125,-0.5702362060546875,0.76312255859375
1761585618116838100,10.046838134765625,0.105255126953125,-0.5377197265625,0.74346923828125
1761585618126812200,10.056812255859375,0.1125946044921875,-0.4691925048828125,0.753997802734375
1761585618136786200,10.0667861328125,0.0899658203125,-0.41058349609375,0.7893218994140625
1761585618146760200,10.07676025390625,0.043243408203125,-0.3767852783203125,0.840850830078125
1761585618156733200,10.086733154296875,-0.01397705078125,-0.3716278076171875,0.8824920654296875
1761585618166707200,10.096707275390624,-0.038238525390625,-0.40484619140625,0.89398193359375
1761585618176681200,10.10668115234375,0.0034942626953125,-0.4810333251953125,0.9170379638671875
1761585618186654200,10.116654296875,0.1058349609375,-0.542205810546875,0.949951171875
1761585618196628200,10.126628173828125,0.116058349609375,-0.5391998291015625,0.93572998046875
1761585618206602200,10.136602294921875,0.033172607421875,-0.5134735107421875,0.90338134765625
1761585618216576300,10.146576171875,-0.0484161376953125,-0.485870361328125,0.89544677734375
1761585618226549500,10.156549560546875,-0.080718994140625,-0.4797210693359375,0.8910064697265625
1761585618236523300,10.166523193359374,-0.06207275390625,-0.5072021484375,0.86676025390625
1761585618246497300,10.176497314453124,-0.0268096923828125,-0.538848876953125,0.84381103515625
1761585618256470500,10.186470458984376,0.0246734619140625,-0.565093994140625,0.811370849609375
1761585618266444500,10.196444580078126,0.0824737548828125,-0.57781982421875,0.7739715576171875
1761585618276418300,10.206418212890625,0.13916015625,-0.57391357421875,0.7481689453125
1761585618286392300,10.216392333984375,0.1560821533203125,-0.55999755859375,0.755218505859375
1761585618296365300,10.226365234375,0.1269073486328125,-0.540863037109375,0.781524658203125
1761585618306339300,10.23633935546875,0.07470703125,-0.5207061767578125,0.806427001953125
1761585618316313300,10.246313232421874,0.0745697021484375,-0.5002899169921875,0.8419647216796875
1761585618326287400,10.256287353515624,0.11053466796875,-0.519744873046875,0.8928680419921875
1761585618336260400,10.26626025390625,0.1055145263671875,-0.5510406494140625,0.9266510009765625
1761585618346234400,10.276234375,0.05926513671875,-0.5415191650390625,0.926239013671875
1761585618356208400,10.28620849609375,0.0257110595703125,-0.5165863037109375,0.930633544921875
1761585618366181400,10.296181396484375,0.0018310546875,-0.4923248291015625,0.938201904296875
1761585618376155400,10.3061552734375,-0.016632080078125,-0.4925537109375,0.916351318359375
1761585618386129400,10.31612939453125,0.0050201416015625,-0.4980010986328125,0.8778839111328125
1761585618396103400,10.326103515625,0.048614501953125,-0.5089874267578125,0.8403167724609375
1761585618406076400,10.336076416015626,0.075103759765625,-0.5135955810546875,0.824066162109375
1761585618416050400,10.346050537109376,0.0862579345703125,-0.52252197265625,0.85546875
1761585618426024400,10.3560244140625,0.054656982421875,-0.531585693359375,0.8990020751953125
1761585618435998500,10.36599853515625,0.010955810546875,-0.5380096435546875,0.9533538818359375
1761585618445971200,10.37597119140625,0.0104522705078125,-0.52703857421875,0.9875640869140625
1761585618455945200,10.3859453125,-0.0126190185546875,-0.504913330078125,0.93402099609375
1761585618465919200,10.395919189453124,-0.0288848876953125,-0.486907958984375,0.8492279052734375
1761585618475892200,10.405892333984376,0.0264129638671875,-0.49505615234375,0.776519775390625
1761585618485866200,10.4158662109375,0.0759735107421875,-0.538421630859375,0.745086669921875
1761585618495840300,10.42584033203125,0.10040283203125,-0.5668792724609375,0.7253570556640625
1761585618505814300,10.435814208984375,0.12030029296875,-0.57183837890625,0.7084503173828125
1761585618515787500,10.44578759765625,0.090576171875,-0.56103515625,0.7415618896484375
1761585618525761500,10.455761474609375,0.0012969970703125,-0.5398101806640625,0.83172607421875
1761585618535735600,10.465735595703125,-0.0644378662109375,-0.517578125,0.9149932861328125
1761585618545708500,10.47570849609375,-0.05169677734375,-0.503814697265625,0.9351806640625
1761585618555682300,10.485682373046876,0.00372314453125,-0.5044097900390625,0.9344635009765625
1761585618565656300,10.49565625,0.0401458740234375,-0.51837158203125,0.89862060546875
1761585618575630300,10.50563037109375,0.0460662841796875,-0.5122833251953125,0.85101318359375
1761585618585603600,10.515603515625,0.0543670654296875,-0.5207061767578125,0.825836181640625
1761585618595577600,10.52557763671875,0.02734375,-0.533203125,0.791351318359375
1761585618605551400,10.53555126953125,0.013275146484375,-0.5090179443359375,0.7545928955078125
1761585618615525400,10.545525390625,0.0310821533203125,-0.5182952880859375,0.7537689208984375
1761585618625498600,10.55549853515625,0.0555419921875,-0.5612945556640625,0.7692718505859375
1761585618635472600,10.56547265625,0.0703582763671875,-0.579345703125,0.7692108154296875
1761585618645446700,10.57544677734375,0.0730133056640625,-0.573089599609375,0.778411865234375
1761585618655419600,10.585419677734375,0.0295257568359375,-0.5564422607421875,0.8392486572265625
1761585618665393700,10.5953935546875,-0.02874755859375,-0.545654296875,0.9015350341796875
1761585618675367700,10.60536767578125,-0.0185394287109375,-0.545867919921875,0.914520263671875
1761585618685341700,10.615341796875,0.0117950439453125,-0.54913330078125,0.92279052734375
1761585618695314400,10.625314453125,0.0328826904296875,-0.562347412109375,0.9164276123046875
1761585618705288400,10.635288330078126,0.05291748046875,-0.56939697265625,0.8947906494140625
1761585618715262500,10.645262451171876,0.0702667236328125,-0.5657196044921875,0.88531494140625
1761585618725236500,10.655236572265625,0.069549560546875,-0.5600738525390625,0.8699951171875
1761585618735209500,10.66520947265625,0.068450927734375,-0.5546875,0.842132568359375
1761585618745183500,10.67518359375,0.07916259765625,-0.544525146484375,0.844024658203125
1761585618755157500,10.685157470703125,0.0738372802734375,-0.54931640625,0.8581085205078125
1761585618765130500,10.695130615234374,0.0654449462890625,-0.56671142578125,0.8661651611328125
1761585618775104500,10.7051044921875,0.059356689453125,-0.5787200927734375,0.865264892578125
1761585618785078500,10.71507861328125,0.0652008056640625,-0.579986572265625,0.860870361328125
1761585618795052500,10.725052490234376,0.0747528076171875,-0.58209228515625,0.8589324951171875
1761585618805025500,10.735025634765625,0.0634002685546875,-0.5700836181640625,0.8566131591796875
1761585618814999600,10.74499951171875,0.0458831787109375,-0.5491790771484375,0.84381103515625
1761585618824973600,10.7549736328125,0.0566864013671875,-0.5388031005859375,0.8255157470703125
1761585618834947600,10.764947509765625,0.0680084228515625,-0.5546417236328125,0.8227386474609375
1761585618844920300,10.77492041015625,0.05047607421875,-0.5679931640625,0.8329010009765625
1761585618854894300,10.784894287109376,0.0191497802734375,-0.5574493408203125,0.84954833984375
1761585618864868400,10.794868408203126,-0.029571533203125,-0.534210205078125,0.868499755859375
1761585618874841300,10.80484130859375,-0.06378173828125,-0.522430419921875,0.876617431640625
1761585618884815400,10.8148154296875,-0.0634613037109375,-0.5309906005859375,0.8592987060546875
1761585618894789400,10.824789306640625,-0.02264404296875,-0.556976318359375,0.8244476318359375
1761585618904763400,10.834763427734375,0.0339813232421875,-0.5697479248046875,0.8011016845703125
1761585618914736400,10.844736328125,0.062530517578125,-0.5783233642578125,0.7911834716796875
1761585618924710400,10.85471044921875,0.058929443359375,-0.58203125,0.789215087890625
1761585618934684400,10.864684326171876,0.049041748046875,-0.563629150390625,0.7750396728515625
1761585618944657700,10.87465771484375,0.0387420654296875,-0.550140380859375,0.7710723876953125
1761585618954631700,10.884631591796875,0.02435302734375,-0.5487823486328125,0.7716522216796875
1761585618964605700,10.894605712890625,0.0313262939453125,-0.5524444580078125,0.7833099365234375
1761585618974579500,10.904579345703125,0.035491943359375,-0.5581512451171875,0.8067474365234375
1761585618984552400,10.914552490234374,0.0087432861328125,-0.5724029541015625,0.84149169921875
1761585618994526500,10.9245263671875,-0.0048828125,-0.587066650390625,0.905853271484375
1761585619004500500,10.93450048828125,-0.0691070556640625,-0.5369720458984375,0.9319915771484375
1761585619014474500,10.944474609375,-0.09881591796875,-0.51458740234375,0.9193572998046875
1761585619024447500,10.954447509765625,-0.021240234375,-0.5361785888671875,0.915618896484375
1761585619034421500,10.96442138671875,0.0654144287109375,-0.567291259765625,0.893218994140625
1761585619044395500,10.9743955078125,0.12518310546875,-0.5689544677734375,0.859222412109375
1761585619054368500,10.984368408203125,0.1378173828125,-0.5554351806640625,0.8279571533203125
1761585619064342500,10.994342529296874,0.12158203125,-0.56378173828125,0.81268310546875
1761585619074316500,11.004316650390624,0.0887298583984375,-0.5605926513671875,0.8095550537109375
1761585619084290600,11.01429052734375,0.054412841796875,-0.5489044189453125,0.800872802734375
1761585619094263600,11.024263671875,0.05999755859375,-0.5559539794921875,0.784637451171875
1761585619104237600,11.034237548828125,0.087921142578125,-0.5595703125,0.777008056640625
1761585619114211600,11.044211669921875,0.08770751953125,-0.561676025390625,0.766845703125
1761585619124185600,11.054185546875,0.0806427001953125,-0.5700225830078125,0.7609100341796875
1761585619134158600,11.06415869140625,0.0611572265625,-0.5670623779296875,0.7655181884765625
1761585619144132400,11.07413232421875,0.0445556640625,-0.5656585693359375,0.776702880859375
1761585619154106400,11.0841064453125,0.0237884521484375,-0.5478363037109375,0.7803955078125
1761585619164079400,11.094079345703125,0.00555419921875,-0.5359344482421875,0.7810211181640625
1761585619174053400,11.104053466796875,0.0305633544921875,-0.5428466796875,0.7877044677734375
1761585619184027400,11.11402734375,0.0313873291015625,-0.5542755126953125,0.827728271484375
1761585619194001400,11.12400146484375,-0.0814666748046875,-0.5520782470703125,0.9396209716796875
1761585619203974400,11.133974365234375,-0.1243743896484375,-0.5309600830078125,0.986541748046875
1761585619213948400,11.143948486328124,-0.0815277099609375,-0.5229949951171875,0.9585723876953125
1761585619223922400,11.15392236328125,-0.0301361083984375,-0.5218353271484375,0.9165191650390625
1761585619233895400,11.1638955078125,0.0254058837890625,-0.5438690185546875,0.8644866943359375
1761585619243869400,11.173869384765625,0.079376220703125,-0.566558837890625,0.8526611328125
1761585619253843500,11.183843505859375,0.1092376708984375,-0.5782623291015625,0.8600006103515625
1761585619263817500,11.1938173828125,0.1047515869140625,-0.5775146484375,0.865264892578125
1761585619273790700,11.203790771484375,0.0855255126953125,-0.559051513671875,0.8574676513671875
1761585619283764500,11.213764404296874,0.063873291015625,-0.53302001953125,0.848785400390625
1761585619293738500,11.223738525390624,0.039703369140625,-0.5213470458984375,0.8558197021484375
1761585619303712500,11.23371240234375,0.027862548828125,-0.5247955322265625,0.8484039306640625
1761585619313685500,11.243685546875,0.0271148681640625,-0.534210205078125,0.8250885009765625
1761585619323659500,11.253659423828125,0.030792236328125,-0.5532073974609375,0.8141326904296875
1761585619333633500,11.263633544921875,0.0366668701171875,-0.572662353515625,0.810272216796875
1761585619343606500,11.2736064453125,0.0379638671875,-0.5726165771484375,0.8021240234375
1761585619353580500,11.28358056640625,0.0278472900390625,-0.5553436279296875,0.7927093505859375
1761585619363554600,11.293554443359374,0.017059326171875,-0.5415496826171875,0.7888336181640625
1761585619373528600,11.303528564453124,0.0036773681640625,-0.5405426025390625,0.7891082763671875
1761585619383501600,11.31350146484375,0.00054931640625,-0.5498199462890625,0.78570556640625
1761585619393475600,11.3234755859375,0.0127105712890625,-0.5666961669921875,0.787750244140625
1761585619403449600,11.33344970703125,0.014984130859375,-0.5681610107421875,0.810333251953125
1761585619413423600,11.343423583984375,0.011199951171875,-0.56005859375,0.819091796875
1761585619423396600,11.353396728515625,0.008209228515625,-0.5657501220703125,0.821075439453125
1761585619433370600,11.36337060546875,0.0075531005859375,-0.566986083984375,0.8350830078125
1761585619443344600,11.3733447265625,-0.006103515625,-0.5571746826171875,0.8535003662109375
1761585619453317400,11.3833173828125,-0.0078582763671875,-0.5548095703125,0.8685150146484375
1761585619463291400,11.39329150390625,0.006927490234375,-0.55926513671875,0.8681640625
1761585619473265400,11.403265380859375,0.0397491455078125,-0.5649871826171875,0.851806640625
1761585619483239400,11.413239501953125,0.0743408203125,-0.5724639892578125,0.8441162109375
1761585619493212400,11.42321240234375,0.0918426513671875,-0.5808258056640625,0.8473968505859375
1761585619503186400,11.4331865234375,0.0854034423828125,-0.572509765625,0.8503265380859375
1761585619513160400,11.443160400390624,0.036712646484375,-0.550262451171875,0.864501953125
1761585619523137800,11.4531376953125,-0.01629638671875,-0.530731201171875,0.861907958984375
1761585619533111800,11.46311181640625,-0.043853759765625,-0.531951904296875,0.849273681640625
1761585619543085800,11.4730859375,-0.0422210693359375,-0.5305023193359375,0.839691162109375
1761585619553059800,11.483059814453124,-0.0157623291015625,-0.535980224609375,0.8341827392578125
1761585619563032800,11.49303271484375,0.000152587890625,-0.54656982421875,0.8358001708984375
1761585619573006800,11.5030068359375,-0.003448486328125,-0.55035400390625,0.8306427001953125
1761585619582980900,11.51298095703125,-0.0087127685546875,-0.5507354736328125,0.825775146484375
1761585619592955000,11.522954833984375,-0.0010833740234375,-0.5571136474609375,0.8300323486328125
1761585619602927900,11.532927978515625,0.01068115234375,-0.5752105712890625,0.824462890625
1761585619612902000,11.54290185546875,0.019073486328125,-0.5804443359375,0.810943603515625
1761585619622876000,11.5528759765625,0.0230865478515625,-0.56427001953125,0.8173065185546875
1761585619632849000,11.562848876953124,0.0225372314453125,-0.5511016845703125,0.8302001953125
1761585619642823000,11.572822998046876,0.036529541015625,-0.54132080078125,0.8342132568359375
1761585619652797000,11.582796875,0.048187255859375,-0.5346832275390625,0.826019287109375
1761585619662771000,11.59277099609375,0.0295867919921875,-0.5580902099609375,0.828094482421875
1761585619672743700,11.60274365234375,-0.0023651123046875,-0.5909423828125,0.8355255126953125
1761585619682717700,11.6127177734375,-0.0113372802734375,-0.5660858154296875,0.8466033935546875
1761585619692691700,11.622691650390625,0.0121612548828125,-0.5438995361328125,0.8515167236328125
1761585619702665000,11.6326650390625,0.00689697265625,-0.5655364990234375,0.83154296875
1761585619712639000,11.642638916015626,0.007659912109375,-0.56707763671875,0.8296356201171875
1761585619722612700,11.65261279296875,0.00994873046875,-0.550140380859375,0.8325347900390625
1761585619732586800,11.662586669921875,-0.01849365234375,-0.540191650390625,0.8314666748046875
1761585619742560000,11.67256005859375,-0.0412445068359375,-0.557342529296875,0.84075927734375
1761585619752534000,11.682533935546875,-0.0241546630859375,-0.5679931640625,0.855926513671875
1761585619762508000,11.692508056640625,0.0198211669921875,-0.5682830810546875,0.8653106689453125
1761585619772481800,11.702481689453125,0.0492401123046875,-0.572540283203125,0.8802490234375
1761585619782455000,11.712455078125,0.038055419921875,-0.5758056640625,0.8833160400390625
1761585619792429000,11.722428955078126,0.0291748046875,-0.5586395263671875,0.861114501953125
1761585619802403000,11.732403076171876,0.02923583984375,-0.5487213134765625,0.854400634765625
1761585619812375800,11.742375732421875,0.0295257568359375,-0.559173583984375,0.8672027587890625
1761585619822349800,11.752349853515625,0.0350799560546875,-0.5471038818359375,0.832061767578125
1761585619832323800,11.76232373046875,0.0264129638671875,-0.5271148681640625,0.79254150390625
1761585619842297900,11.7722978515625,0.0283203125,-0.539215087890625,0.7772369384765625
1761585619852270800,11.782270751953124,0.0421905517578125,-0.577789306640625,0.7835845947265625
1761585619862244900,11.792244873046876,0.0643310546875,-0.5918426513671875,0.806732177734375
1761585619872219000,11.802218994140626,0.06146240234375,-0.554443359375,0.8199462890625
1761585619882192000,11.81219189453125,0.0320587158203125,-0.5296173095703125,0.8364105224609375
1761585619892166000,11.822165771484375,0.01043701171875,-0.54046630859375,0.8481597900390625
1761585619902140000,11.832139892578125,0.00567626953125,-0.5393829345703125,0.859466552734375
1761585619912114000,11.842114013671875,0.019134521484375,-0.528900146484375,0.865203857421875
1761585619922087000,11.8520869140625,0.0362091064453125,-0.529815673828125,0.8664093017578125
1761585619932061000,11.86206103515625,0.0731353759765625,-0.5363922119140625,0.877655029296875
1761585619942035000,11.872034912109376,0.1066741943359375,-0.53375244140625,0.879364013671875
1761585619952009000,11.882009033203126,0.1162872314453125,-0.529693603515625,0.8454437255859375
1761585619961981700,11.891981689453125,0.1080780029296875,-0.5252532958984375,0.8072662353515625
1761585619971955700,11.901955810546875,0.109893798828125,-0.521240234375,0.806884765625
1761585619981929700,11.9119296875,0.1187744140625,-0.5234222412109375,0.8213043212890625
1761585619991902700,11.92190283203125,0.112152099609375,-0.520172119140625,0.83660888671875
1761585620001876700,11.931876708984374,0.0875244140625,-0.510955810546875,0.8722076416015625
1761585620011850800,11.941850830078126,0.0761871337890625,-0.51025390625,0.883514404296875
1761585620021824800,11.95182470703125,0.0812225341796875,-0.51690673828125,0.871307373046875
1761585620031797800,11.9617978515625,0.0905303955078125,-0.52362060546875,0.8518524169921875
1761585620041771800,11.971771728515625,0.101654052734375,-0.5375823974609375,0.8372650146484375
1761585620051745800,11.981745849609375,0.12310791015625,-0.546051025390625,0.8419036865234375
1761585620061719800,11.9917197265625,0.1133575439453125,-0.5514068603515625,0.8492584228515625
1761585620071693000,12.001693115234374,0.1008148193359375,-0.5578155517578125,0.8360443115234375
1761585620081665800,12.011665771484376,0.111236572265625,-0.56585693359375,0.8297882080078125
1761585620091638800,12.021638671875,0.102447509765625,-0.549102783203125,0.8166046142578125
1761585620101612800,12.03161279296875,0.1157379150390625,-0.52423095703125,0.790771484375
1761585620111586800,12.0415869140625,0.1347503662109375,-0.505584716796875,0.785552978515625
1761585620121559800,12.051559814453125,0.1080780029296875,-0.492889404296875,0.775970458984375
1761585620131533800,12.061533935546874,0.0512542724609375,-0.4928131103515625,0.7920074462890625
1761585620141507800,12.0715078125,-0.0249176025390625,-0.5037689208984375,0.8489837646484375
1761585620151481900,12.08148193359375,-0.0884552001953125,-0.5080413818359375,0.895263671875
1761585620161454800,12.091454833984375,-0.0857391357421875,-0.511260986328125,0.918975830078125
1761585620171428900,12.101428955078125,-0.033355712890625,-0.513458251953125,0.9116058349609375
1761585620181403000,12.11140283203125,0.0129547119140625,-0.52960205078125,0.859954833984375
1761585620191376000,12.1213759765625,0.0483856201171875,-0.560516357421875,0.8210296630859375
1761585620201350000,12.131349853515625,0.0704803466796875,-0.5679779052734375,0.812042236328125
1761585620211324000,12.141323974609374,0.0743255615234375,-0.5565948486328125,0.810394287109375
1761585620221298000,12.1512978515625,0.0804595947265625,-0.555450439453125,0.8012847900390625
1761585620231271000,12.16127099609375,0.077301025390625,-0.54583740234375,0.818511962890625
1761585620241244700,12.17124462890625,0.0765228271484375,-0.5349884033203125,0.843353271484375
1761585620251218700,12.18121875,0.086151123046875,-0.5327301025390625,0.859466552734375
1761585620261192700,12.191192626953125,0.0968017578125,-0.5267486572265625,0.8757476806640625
1761585620271166000,12.201166015625,0.0801849365234375,-0.5109710693359375,0.888671875
1761585620281140000,12.211139892578124,0.04132080078125,-0.492767333984375,0.8846893310546875
1761585620291113700,12.22111376953125,0.029388427734375,-0.4948883056640625,0.869049072265625
1761585620301087000,12.2310869140625,0.0300140380859375,-0.5076141357421875,0.8679962158203125
1761585620311061000,12.24106103515625,0.0091400146484375,-0.50286865234375,0.889984130859375
1761585620321035000,12.251034912109375,-0.049957275390625,-0.4755859375,0.8927001953125
1761585620331009000,12.261009033203125,-0.066162109375,-0.4917449951171875,0.8610992431640625
1761585620340982000,12.27098193359375,-0.046173095703125,-0.549896240234375,0.8472900390625
1761585620350956000,12.2809560546875,-0.0140380859375,-0.59130859375,0.88665771484375
1761585620360930000,12.290929931640624,0.075592041015625,-0.62518310546875,0.898468017578125
1761585620370902800,12.30090283203125,0.10186767578125,-0.6123046875,0.835174560546875
1761585620380876800,12.310876708984376,0.05499267578125,-0.5587005615234375,0.800811767578125
1761585620390850800,12.320850830078125,0.02435302734375,-0.553253173828125,0.81988525390625
1761585620400824800,12.330824951171875,0.019073486328125,-0.5576934814453125,0.8384246826171875
1761585620410797800,12.3407978515625,0.007843017578125,-0.5288848876953125,0.828338623046875
1761585620420771800,12.350771728515625,-0.0207366943359375,-0.5120086669921875,0.80120849609375
1761585620430745900,12.360745849609375,-0.015045166015625,-0.5221710205078125,0.7781219482421875
1761585620440720000,12.370719970703124,0.0097808837890625,-0.5460968017578125,0.7988739013671875
1761585620450692900,12.38069287109375,0.02203369140625,-0.551025390625,0.817291259765625
1761585620460667000,12.3906669921875,-0.01177978515625,-0.5236663818359375,0.8452911376953125
1761585620470641000,12.400640869140625,-0.046844482421875,-0.494903564453125,0.8568115234375
1761585620480614000,12.41061376953125,-0.058990478515625,-0.4852142333984375,0.8438262939453125
1761585620490588000,12.420587890625,-0.0465850830078125,-0.49658203125,0.8497314453125
1761585620500562000,12.43056201171875,-0.0515289306640625,-0.5018310546875,0.880126953125
1761585620510536000,12.440535888671874,-0.096710205078125,-0.4965972900390625,0.9203643798828125
1761585620520504800,12.4505048828125,-0.103363037109375,-0.496337890625,0.92071533203125
1761585620530478600,12.460478515625,-0.06793212890625,-0.5076141357421875,0.891998291015625
1761585620540452600,12.47045263671875,-0.0318603515625,-0.5171966552734375,0.8668670654296875
1761585620550425900,12.48042578125,-0.0277252197265625,-0.5200347900390625,0.839813232421875
1761585620560400000,12.49039990234375,-0.0395965576171875,-0.5248260498046875,0.842315673828125
1761585620570374000,12.500373779296876,-0.040771484375,-0.5377960205078125,0.8574371337890625
1761585620580348000,12.510347900390625,-0.0247802734375,-0.5490264892578125,0.8664703369140625
1761585620590321000,12.52032080078125,0.002105712890625,-0.540771484375,0.8637847900390625
1761585620600295000,12.530294921875,0.0100555419921875,-0.543975830078125,0.8503570556640625
1761585620610269000,12.54026904296875,0.01202392578125,-0.5596160888671875,0.8419036865234375
1761585620620242000,12.550241943359374,0.0129852294921875,-0.56207275390625,0.8385162353515625
1761585620630216000,12.5602158203125,0.0137176513671875,-0.561614990234375,0.836639404296875
1761585620640190000,12.57018994140625,0.0054931640625,-0.5633697509765625,0.8353271484375
1761585620650164000,12.5801640625,0.0000457763671875,-0.5667266845703125,0.8262939453125
1761585620660137000,12.590136962890625,0.0088958740234375,-0.565277099609375,0.8198394775390625
1761585620670111000,12.600111083984375,-0.0045013427734375,-0.55084228515625,0.8497772216796875
1761585620680085000,12.6100849609375,-0.0326080322265625,-0.5271759033203125,0.8810577392578125
1761585620690059000,12.62005908203125,-0.0400543212890625,-0.4994049072265625,0.8781280517578125
1761585620700031700,12.63003173828125,-0.0294952392578125,-0.48187255859375,0.866851806640625
1761585620710005800,12.640005859375,-0.038848876953125,-0.478057861328125,0.8730010986328125
1761585620719979800,12.649979736328126,-0.0543212890625,-0.482177734375,0.8874359130859375
1761585620729953800,12.659953857421876,-0.05010986328125,-0.478240966796875,0.876556396484375
1761585620739927800,12.669927734375,-0.0173797607421875,-0.48248291015625,0.8575286865234375
1761585620749901800,12.67990185546875,0.0089111328125,-0.500457763671875,0.8538360595703125
1761585620759874800,12.689874755859375,-0.0220794677734375,-0.5165557861328125,0.897247314453125
1761585620769848800,12.699848876953125,-0.0463409423828125,-0.5186309814453125,0.9052276611328125
1761585620779822800,12.70982275390625,-0.031463623046875,-0.5146026611328125,0.867645263671875
1761585620789795800,12.7197958984375,-0.0152740478515625,-0.53057861328125,0.841796875
1761585620799769900,12.729769775390626,-0.0175628662109375,-0.563507080078125,0.82867431640625
1761585620809744000,12.739743896484375,-0.0123443603515625,-0.5802001953125,0.8187103271484375
1761585620819718000,12.7497177734375,0.004791259765625,-0.583251953125,0.8090057373046875
1761585620829691000,12.75969091796875,0.0112152099609375,-0.5766143798828125,0.7977752685546875
1761585620839665000,12.769664794921875,0.006744384765625,-0.5637969970703125,0.7926483154296875
1761585620849639000,12.779638916015625,-0.0115509033203125,-0.5570220947265625,0.8011627197265625
1761585620859611600,12.789611572265626,-0.02996826171875,-0.55499267578125,0.824371337890625
1761585620869585700,12.799585693359376,-0.0382537841796875,-0.5518798828125,0.8517608642578125
1761585620879559700,12.8095595703125,-0.052093505859375,-0.541046142578125,0.8691558837890625
1761585620889533700,12.81953369140625,-0.0543670654296875,-0.534454345703125,0.8633575439453125
1761585620899506700,12.829506591796875,-0.030059814453125,-0.5327301025390625,0.85736083984375
1761585620909480700,12.839480712890625,-0.018280029296875,-0.5343170166015625,0.8660888671875
1761585620919454700,12.849454833984375,-0.031951904296875,-0.5225067138671875,0.881072998046875
1761585620929428700,12.8594287109375,-0.028656005859375,-0.50653076171875,0.877532958984375
1761585620939402000,12.869402099609376,-0.0154266357421875,-0.499420166015625,0.866058349609375
1761585620949375700,12.879375732421876,-0.0066070556640625,-0.5077667236328125,0.8573760986328125
1761585620959349800,12.889349853515625,-0.010833740234375,-0.5127105712890625,0.8651885986328125
1761585620969323000,12.899322998046875,-0.0229644775390625,-0.5131072998046875,0.875518798828125
