time,seconds_elapsed,z,y,x
1768578434419901200,0.146901123046875,-0.0036988545179367062,-0.10275281072705983,0.15172566208019853
1768578434429874000,0.1568740234375,0.05902794302999973,-0.07831599634587764,0.12460267735496162
1768578434439848000,0.166847900390625,-0.03602700667083263,-0.038299627777934074,0.117555973713845
1768578434449821000,0.176821044921875,-0.05008242003023624,0.030372341910004614,0.08835486754029989
1768578434459795000,0.186794921875,-0.04240764761865139,-0.006044248600304126,-0.06932049672454595
1768578434469768000,0.196767822265625,0.09756488669514655,-0.21504121930152176,-0.28004823674112556
1768578434479741200,0.2067412109375,0.1663824023336172,-0.4310381318926811,-0.46148682697452603
1768578434489715200,0.216715087890625,0.14155717315673827,-0.43446810634136196,-0.850507991066575
1768578434499688000,0.22668798828125,0.15010171414017676,-0.32954964201301334,-2.4951029977977273
1768578434509661000,0.236660888671875,-0.6337777957648039,-1.0624725794017313,-2.6490260237917305
1768578434519635000,0.246635009765625,-1.511846578451991,-1.2683873661786318,-1.569514631305635
1768578434529608000,0.25660791015625,-0.9441659334510564,-0.7689768320664763,-0.4297015495266765
1768578434539581200,0.266581298828125,0.010068389549851417,-0.10642623854279518,0.00042538580521941184
1768578434549555000,0.276554931640625,0.08205050669908523,0.35607875249832865,0.18388218399323522
1768578434559528200,0.286528076171875,0.1557511182039976,0.2848158895343542,0.30395730092115697
1768578434569502200,0.296502197265625,0.1922977648347616,-0.0602186141192913,0.2257807861112058
1768578434579475000,0.306474853515625,0.32638767085075376,-0.1939145523816347,0.16168810703754424
1768578434589448000,0.316447998046875,0.31245149995684623,-0.07732727756947279,0.19920812874510882
1768578434599422000,0.326421875,0.30630583680868145,0.12745996648222208,0.1086825661022216
1768578434609395000,0.33639501953125,0.5555559074431657,0.28956951380223034,-0.09421075396165252
1768578434619368200,0.3463681640625,0.52626726911664,0.2715329218521714,-0.23607202463150023
1768578434629342000,0.356342041015625,0.23861118772029874,0.1887622841849923,-0.21546996610760688
1768578434639315200,0.366315185546875,0.057626844060420984,0.13490677535682916,-0.1482529444683343
1768578434649288000,0.376287841796875,0.09812836579680442,0.09651128598898649,-0.15611169514469803
1768578434659262000,0.386261962890625,-0.02760579980611801,-0.02880962263792753,-0.20841171815916895
1768578434669235000,0.39623486328125,-0.2937427078336477,-0.34604952591508625,-0.14916574846431613
1768578434679209000,0.406208984375,-0.2961258035778999,-0.7362193485856056,-0.0557090277403593
1768578434689182000,0.416181884765625,0.02117839710712433,-0.9563207738861441,-0.030315570221468805
1768578434699155200,0.4261552734375,0.14259236142337323,-0.7521820568710565,-0.04110219104327261
1768578434709129200,0.436129150390625,0.09092997872531414,-0.2541702836409211,-0.003463219131156802
1768578434719102200,0.446102294921875,-0.004012158250808716,-0.07894523416012525,0.03727196523062885
1768578434729075000,0.456074951171875,-0.10797288346290587,-0.1170697976320982,0.021238383666053413
1768578434739049000,0.466049072265625,-0.13351532099843025,0.010347206491231917,-0.05094458981752396
1768578434749022000,0.47602197265625,-0.22317922531068324,0.2555930099204182,-0.12004797319266944
1768578434758995000,0.485994873046875,-0.2907213141858578,0.33871348393857476,-0.1743012856993824
1768578434768969000,0.495968994140625,-0.24573124885857103,0.12308803500831127,-0.23519491300340742
1768578434778942200,0.505942138671875,-0.2313981876015663,-0.18469108922332525,-0.2702492387171835
1768578434788916200,0.515916259765625,-0.29861586682796476,-0.3559279458507895,-0.2561307335263118
1768578434798889000,0.525888916015625,-0.03291793473958969,-0.35886195347607136,-0.2708713892035186
1768578434808862000,0.535862060546875,0.33959845007956024,-0.22542262032330035,-0.18346673506014047
1768578434818836000,0.5458359375,0.6238502759903669,-0.17305179709494112,-0.08700235695280134
1768578434828809000,0.55580908203125,0.5268874468415975,-0.21922785733640193,0.047505427415389566
1768578434838782000,0.565781982421875,0.23073884690999982,-0.11505699650496244,0.13498707405142485
1768578434848756000,0.575755859375,-0.006491700106859207,0.08184884664714336,0.14868804794996976
1768578434858729200,0.585729248046875,-0.05564940650761127,0.5825847841441631,0.2688646342246793
1768578434868703200,0.595703125,-0.3393652258455753,0.827284936389327,-0.3206011964038014
1768578434878676000,0.605676025390625,-0.6791799490243197,0.2868459340572357,-0.9442517851036042
1768578434888649000,0.61564892578125,-0.49148412502706046,-0.20753332788944243,-0.3620306466400623
1768578434898622000,0.6256220703125,-0.7120616434067487,-0.37000060260593887,-0.09823758919178507
1768578434908595000,0.635594970703125,-0.5971966623425483,-0.24462737926989792,-0.2812145223078318
1768578434918568000,0.64556787109375,0.05159750076830387,-0.2675026434227824,-0.3132822882251814
1768578434928542000,0.6555419921875,0.5271574959546327,-0.3007803513854742,-0.18148197271740063
1768578434938515000,0.665514892578125,0.8979670768558978,-0.11297025335878133,-0.0316701449018903
1768578434948488000,0.675488037109375,1.108667344343662,0.13636924912482498,0.14068304807017556
1768578434958462000,0.6854619140625,0.9382698611497878,0.31937428495734926,0.2350423162575811
1768578434968435000,0.69543505859375,0.5514484721243381,0.2819838809788227,0.22257230892609803
1768578434978409000,0.705408935546875,0.2752174555838108,0.11105915904045105,0.15533992532091215
1768578434988382000,0.7153818359375,0.10458791719973087,0.046772564829885954,0.02638009393606335
1768578434998355000,0.72535498046875,0.04016892878115177,0.08679945479184388,-0.11251642691036685
1768578435008329000,0.735328857421875,0.051857028487324715,0.08409691783487797,-0.18690797982150686
1768578435018302000,0.745302001953125,0.22896774558424948,-0.027262977717816828,-0.22926168702952562
1768578435028276000,0.75527587890625,0.5315881718784571,-0.2875426841497421,-0.14536248372383415
1768578435038249000,0.7652490234375,1.1383704086899757,-0.474026794269681,-0.06957587799141184
1768578435048222000,0.775221923828125,1.3048323060005902,-0.4557321359053254,-0.029002953252941367
1768578435058195700,0.78519580078125,0.9928443319022655,-0.3437739821985364,0.05267207119725644
1768578435068169000,0.7951689453125,0.6722948656857013,-0.19411212078034876,0.2071476165074855
1768578435078142000,0.805141845703125,0.3370516882061958,0.07143062074631452,0.21905111253000795
1768578435088116000,0.815115966796875,0.1709007565408945,0.29346564445793627,0.08797693760599941
1768578435098089000,0.8250888671875,0.03492693647444248,0.32150311367958784,-0.05996657558698207
1768578435108063000,0.83506298828125,-0.1199801321208477,0.1675961620375514,-0.14564736507982015
1768578435118036000,0.845035888671875,-0.255854583466053,0.07529343365430831,-0.1702033853938803
1768578435128009000,0.855009033203125,-0.25598376280367374,0.045448330488801,-0.19837927670553326
1768578435137982700,0.864982666015625,0.08735036667287349,-0.09479425293803215,-0.2403539762670174
1768578435147956000,0.8749560546875,0.4468319133520126,-0.2716536256223917,-0.23437775140162556
1768578435157929000,0.884928955078125,0.4549935924977064,-0.4355249219179153,-0.16129731762167066
1768578435167903000,0.894903076171875,0.2377987022936344,-0.4089885049089789,-0.03199767808951437
1768578435177876000,0.9048759765625,0.12871288915276527,-0.1605409828290343,0.10875910193715244
1768578435187850000,0.91485009765625,0.039945056897401805,0.02639233236312866,0.13622194960862397
1768578435197823000,0.924822998046875,-0.054712417918443675,0.03465104214251041,0.13017108860444276
1768578435207796000,0.9347958984375,-0.028743279403448105,-0.025731530366837976,0.06886551949866115
1768578435217770000,0.94477001953125,-0.06673077249228954,-0.06257043794244528,0.06039444561023265
1768578435227743000,0.954742919921875,0.014632336464524269,-0.13770225129425526,0.058075903002172705
1768578435237717000,0.964717041015625,0.12692834382355211,-0.228405435526371,-0.03863543560355902
1768578435247690000,0.97468994140625,0.1670920119076967,-0.17226999906748533,-0.02779266414772719
1768578435257663000,0.9846630859375,0.18754735543727874,-0.050899435501545666,0.10936857560500501
1768578435267637000,0.994636962890625,0.10305179367363453,-0.004894201782345771,0.1959406513817608
1768578435277609700,1.004609619140625,0.06653145052790642,0.008522183021157979,0.203257184940204
1768578435287583000,1.0145830078125,0.040697921091318125,0.08094459128379822,0.16716233719754964
1768578435297557000,1.024556884765625,-0.09740823482871055,0.06510331742092966,0.1522035452576354
1768578435307530000,1.034530029296875,-0.01585223364830017,-0.06621727001219987,0.1853908715231344
1768578435317504000,1.04450390625,0.12354688469171524,-0.10522796866893767,0.1785124005883932
1768578435327477000,1.05447705078125,0.12260171279609203,-0.0015505904428660868,0.1791058729695156
1768578435337450000,1.064449951171875,0.02784720734655857,-0.04656783603802323,0.19234514764044433
1768578435347424000,1.074424072265625,0.056417468270659445,-0.17366028438210487,0.13118976412769406
1768578435357396700,1.084396728515625,0.24667291362285612,-0.1801433627910912,0.03728347300533205
1768578435367370800,1.094370849609375,0.24471184268295765,-0.15506357433125376,-0.007054156295210123
1768578435377344000,1.104343994140625,0.0475789127767086,-0.05723506826385855,0.018308394628763196
1768578435387317000,1.11431689453125,-0.0699830522865057,0.0611630553625524,0.025978344734758137
1768578435397291000,1.124291015625,0.13424188170731066,-0.055960372152924535,-0.012679375765845179
1768578435407264000,1.134263916015625,0.45160219649374483,-0.2105513605363667,-0.04148289745654911
1768578435417237000,1.144237060546875,0.4070347404927015,-0.121480892072618,0.0019565408952534197
1768578435427211000,1.1542109375,0.21232056216597556,-0.08193199488595128,0.028430596725083884
1768578435437183700,1.164183837890625,0.10544190368056297,-0.1791030599579215,0.019926753078214822
1768578435447157800,1.17415771484375,0.10658055232167243,-0.1530710853397846,0.023546551010571418
1768578435457131000,1.184131103515625,0.027921441626548766,-0.04424757639691233,-0.009308511093258857
1768578435467104000,1.19410400390625,-0.003848492121696472,-0.07842588646113872,-0.03442578201927245
1768578435477078000,1.204078125,0.14200608596801756,-0.10239289137348533,-0.011716668213531374
1768578435487051000,1.214051025390625,0.2977396685153246,-0.09700316115915775,-0.016124803511984646
1768578435497024000,1.22402392578125,0.31068449028432366,-0.1823968408063054,-0.034522629989869894
1768578435506997800,1.233997802734375,0.33470658638477324,-0.16527429496124385,-0.030486177548021076
1768578435516970800,1.243970703125,0.3101683574557304,-0.1792125116817653,-0.03661452423520386
1768578435526944800,1.25394482421875,0.2803758612602949,-0.17359350275620816,0.02157207259982824
1768578435536918000,1.26391796875,0.2776999200493097,-0.0051715574190020555,0.003489230355247855
1768578435546891000,1.27389111328125,0.13860533761382102,0.04349631963819265,-0.005202135220356285
1768578435556865000,1.283864990234375,-0.038549218624830246,0.01721592321693897,0.07261489862743764
1768578435566838000,1.293838134765625,-0.04848784431517124,0.043305911632627245,0.09781250478066504
1768578435576812000,1.30381201171875,-0.022255670949816703,0.0630951924689114,0.06248984698690473
1768578435586784800,1.31378466796875,-0.054633507463335985,0.10640154249295591,0.047157874353043736
1768578435596758000,1.323758056640625,-0.08975684329271316,0.1276234864808619,0.04283277769554406
1768578435606731800,1.333731689453125,-0.09249883547723292,0.05513122785240412,-0.05423413288220763
1768578435616705000,1.343705078125,-0.12357903339564799,0.09072466541156173,-0.16538970150183885
1768578435626679000,1.353678955078125,-0.2336065113008022,0.04686930320262909,-0.17913170153051614
1768578435636652000,1.363652099609375,-0.05357318475544452,-0.06532251312956214,-0.09845555192455649
1768578435646625000,1.373625,0.16640286059975623,-0.07784633300751448,-0.008638210616260767
1768578435656599000,1.38359912109375,0.18399521591365336,-0.0604082914724946,0.09494878591261803
1768578435666571800,1.39357177734375,0.23072364934086798,-0.09022285336926579,0.18283731458280233
1768578435676545000,1.403544921875,0.2248497888714075,-0.10136910128369926,0.1865777066875249
1768578435686518800,1.413518798828125,0.35916707390248775,-0.17032514861002562,0.16428265357539057
1768578435696492000,1.423491943359375,0.4010702791303396,-0.1939563456967473,0.09188976366817951
1768578435706466000,1.433466064453125,0.22569617656767366,-0.11677768281772732,0.0877406811647117
1768578435716439000,1.44343896484375,0.15842413680553435,-0.059982467275857924,0.08482139618452637
1768578435726412000,1.453412109375,0.12146657128632068,0.07632511478960513,0.04122165270447731
1768578435736386000,1.463385986328125,-0.00199029703438282,0.09113894530087709,0.04451112270392477
1768578435746358800,1.47335888671875,-0.09614859015643597,-0.0536155625924468,0.07918214818853885
1768578435756332800,1.483332763671875,-0.062468438872694966,-0.06684095486849546,0.0937070787558332
1768578435766306000,1.49330615234375,0.10002280124127864,-0.05238412110134959,0.07572302071060985
1768578435776279000,1.503279052734375,0.2922211973547935,-0.07537322089225053,0.1196365428475663
1768578435786253000,1.513253173828125,0.45394788283705706,-0.1761244825385511,0.10811733343489467
1768578435796226000,1.52322607421875,0.5379489390820265,-0.23081388490758836,0.004390964967943728
1768578435806198800,1.53319873046875,0.5520774176776408,-0.14120726374052464,-0.04067399222645909
1768578435816172800,1.5431728515625,0.44055999347567554,-0.08003083743974566,-0.014203443527966738
1768578435826145800,1.553145751953125,0.3756377317100763,-0.05688450126051903,-0.03553458351138979
1768578435836119800,1.563119873046875,0.22193360916376112,0.008858794564381241,-0.09977671752572059
1768578435846093000,1.573093017578125,0.028169863429665563,0.015716989896073938,-0.10186638328135013
1768578435856066000,1.583066162109375,0.11282675323486327,-0.09655307930409908,-0.14921064705196768
1768578435866040000,1.5930400390625,0.24504794276952743,-0.0276455472946167,-0.17274585468461737
1768578435876013000,1.603012939453125,0.19609423450827598,0.058676280048117035,-0.13658026152700184
1768578435885987000,1.612987060546875,0.0875853444725275,-0.10638152261823415,-0.11199788292897865
1768578435895961000,1.622961181640625,0.10721300500631331,-0.21042671124339102,-0.11832293949835002
1768578435905934000,1.63293408203125,0.38444238493442534,-0.2572501294776797,-0.1402394781542942
1768578435915908000,1.642908203125,0.6315004984825849,-0.29284754909221083,-0.2151089142428711
1768578435925880800,1.652880859375,0.48630876821577546,-0.18000073945000766,-0.21502547374311834
1768578435935854000,1.66285400390625,0.31164485974907874,-0.10052717056684195,-0.16773029154492541
1768578435945827800,1.672827880859375,0.17415186729133128,-0.15584939094670117,-0.192926929583773
1768578435955801000,1.682801025390625,0.0989876129746437,-0.1696406917435117,-0.20515918263662605
1768578435965775000,1.692775146484375,0.23311142126023768,-0.1323293443505652,-0.2628302311649546
1768578435975748000,1.702748046875,0.3331418212860823,-0.1152228911237791,-0.2931932572573423
1768578435985721000,1.71272119140625,0.2474099957257509,-0.05975908858245238,-0.18180230897925792
1768578435995695000,1.722695068359375,0.08932605066001414,-0.0672010568851605,-0.12958147041453047
1768578436005667800,1.732667724609375,0.12278233006000518,-0.114899330858374,-0.1382709910929203
1768578436015641900,1.742641845703125,0.09781389302015304,0.015235352992126716,-0.05532717054961249
1768578436025615000,1.752614990234375,0.007674772411584854,0.08358879478280432,-0.014512217216193675
1768578436035588000,1.762588134765625,-0.010195815321803092,0.05129868221851065,-0.1436743114411831
1768578436045562000,1.77256201171875,-0.15445815578401087,0.15084233990702778,-0.24076423756834117
1768578436055535000,1.78253515625,-0.2859270656466484,0.19407472964571787,-0.256691216953285
1768578436065508000,1.792508056640625,-0.28849136317670343,0.16441957782804964,-0.21266097310148177
1768578436075482000,1.802482177734375,-0.24778701234459877,0.15918375953380018,-0.14806688384432345
1768578436085454800,1.812454833984375,-0.15371815107166767,0.0860987591765821,-0.07249839610829949
1768578436095428900,1.822428955078125,-0.1345803198814392,0.03470350298210978,-0.04274919106531888
1768578436105402000,1.832402099609375,-0.13361878137290478,0.046014659134671086,-0.04129300090763718
1768578436115375000,1.842375,-0.09046762191057205,0.02071903596706688,-0.035525450356863435
1768578436125349000,1.85234912109375,-0.033281507354974746,-0.005524170248955488,-0.013744082387909293
1768578436135322000,1.862322021484375,0.2336895134091377,-0.04460055455304682,-0.042718722861818964
1768578436145296100,1.872296142578125,0.5169692794173956,-0.08540719671584665,-0.09879146934803575
1768578436155268900,1.882268798828125,0.5217839862227439,-0.0863844442501664,-0.08975633183605969
1768578436165241900,1.892241943359375,0.4270236355543136,-0.0651386079300195,-0.1833189971525222
1768578436175215900,1.9022158203125,0.19522388141453265,-0.049994157224893566,-0.20492270699962972
1768578436185189000,1.912189208984375,-0.16853987262845038,0.004491393135115504,-0.02756137614250183
1768578436195163100,1.9221630859375,-0.20274317100346087,0.09428951828628777,0.20910759146884084
1768578436205136100,1.93213623046875,-0.2697708806157112,0.205465873965621,0.31219588122796266
1768578436215109000,1.942109130859375,-0.31011458144187926,0.21107012371346354,0.2666181522058323
1768578436225083100,1.952083251953125,-0.37802316554188725,0.24946400564610957,0.148828844660148
1768578436235055900,1.962055908203125,-0.579061870715022,0.31249504683762785,0.02636040285490453
1768578436245028900,1.97202880859375,-0.5652706612497568,0.23465236709192394,-0.05834598864782601
1768578436255003000,1.9820029296875,-0.42819969359636306,0.13198372751697898,-0.09669811379797756
1768578436264976100,1.99197607421875,-0.2501981651395559,-0.049651481267064805,-0.10251469112224876
1768578436274950100,2.0019501953125,-0.09777239196598529,-0.1917205494686961,-0.057420580898597834
1768578436284923100,2.011923095703125,-0.22377894476950166,-0.1589354473285377,-0.0629634923806414
1768578436294896000,2.021896240234375,-0.2740022345751524,-0.10972294200062752,0.006079283381067216
1768578436304870100,2.0318701171875,-0.28231355132460595,-0.10597440312206745,0.0021554610008373857
1768578436314843000,2.0418427734375,-0.29307050766050813,-0.06185527541041374,-0.07209065555762499
1768578436324817000,2.05181689453125,-0.23533143539726734,-0.035595044994354244,-0.06187237267568707
1768578436334790000,2.061789794921875,-0.12655308077037333,-0.0027260639630258083,-0.010916348148696124
1768578436344763100,2.07176318359375,-0.15333061305880546,0.031182635379582643,0.02726111455429345
1768578436354737200,2.081737060546875,-0.1010229181945324,0.008340688974410294,0.03960351345073432
1768578436364710100,2.091710205078125,0.02066927854120731,0.00032937808483839034,0.022812099256180225
1768578436374684200,2.10168408203125,0.11891162610650062,-0.009454933826625347,-0.020732808764092624
1768578436384657000,2.111656982421875,-0.06156184542179107,0.04676058213114738,-0.022888452428020536
1768578436394630000,2.1216298828125,-0.18947978480458258,0.1628551049903035,0.020645934198237955
1768578436404604000,2.13160400390625,-0.18869769451618193,0.2088379807472229,0.019378252349980175
1768578436414577000,2.141576904296875,-0.10074059412181377,0.1266775839328766,0.024643552467040718
1768578436424551000,2.151551025390625,-0.049592590686678886,0.02693301511108875,0.011705891091190277
1768578436434524200,2.161524169921875,-0.14975684622526167,0.026137188558280466,0.084224471470993
1768578436444497200,2.1714970703125,0.02763327233493328,-0.02450023500621319,0.10474710808312519
1768578436454471200,2.18147119140625,0.20624445712268352,-0.08974252250641584,0.04128695475934073
1768578436464444000,2.19144384765625,0.12328151175379752,-0.04338555274009704,0.05486417441405356
1768578436474417000,2.2014169921875,0.1459574539422989,0.007576864995062351,0.12970230204891411
1768578436484391000,2.211390869140625,0.1874918258577585,-0.0316387085840106,0.1260720009888522
1768578436494364000,2.221364013671875,0.17311141832768917,-0.09053864132016896,0.03866643353002146
1768578436504338000,2.231337890625,0.18689385996460914,-0.1253849137738347,0.01909393724957481
1768578436514311200,2.241311279296875,0.05954290681481361,-0.0810626647055149,0.03225860318117775
1768578436524284200,2.2512841796875,-0.14157996951043605,0.010573416462540626,0.03786081623556092
1768578436534258200,2.261258056640625,-0.17309446719288826,0.02739011122882366,0.04743565924796275
1768578436544231000,2.27123095703125,-0.1491816766858101,-0.028700024783611295,0.0298743840589188
1768578436554205000,2.281204833984375,-0.07339139942526816,-0.12789134363681076,-0.011926812966028228
1768578436564178000,2.291177978515625,0.04663490992486476,-0.04174538431763649,0.07820374987674876
1768578436574151000,2.30115087890625,0.09579670797884464,0.04830021278858185,0.1508956866626162
1768578436584125000,2.311125,0.23919044891297817,0.037733810588717456,0.21664423405136912
1768578436594098200,2.32109814453125,0.5585632725656032,0.1788020311847329,0.3162126060560346
1768578436604072200,2.331072265625,0.32321137890219687,0.08816431340426206,0.18840627382155506
1768578436614045200,2.341045166015625,0.027872341787815093,-0.1279942194893956,0.06348413698757067
1768578436624018000,2.351017822265625,0.22861586340665815,-0.14358487959206104,-0.009319909270107746
1768578436633992000,2.360991943359375,0.38856384877860545,-0.1293719375833869,0.028318806913681327
1768578436643965000,2.37096484375,0.2677057647794485,-0.17432254768311978,0.09691877081133425
1768578436653938200,2.380938232421875,0.28366847306489945,-0.16207038435339927,0.05830602196361869
1768578436663912000,2.390911865234375,0.09418810373842716,-0.09414952529370785,0.01788910977076739
1768578436673885200,2.40088525390625,-0.06963701532781123,-0.14237258119285107,-0.026317623159103094
1768578436683859200,2.410859130859375,-0.07017652903199195,-0.2135609176158905,0.016714878359623254
1768578436693832000,2.42083203125,-0.060005263629555695,-0.24097645554691552,0.09315455943960696
1768578436703805000,2.430804931640625,-0.005088263049721717,-0.34644086332023144,0.11859660534057766
1768578436713779000,2.440779052734375,0.3449456563264131,-0.5273255459979176,0.11496570149231701
1768578436723752000,2.450751953125,0.3620569501250982,-0.5041600667268038,0.13749876461140811
1768578436733726000,2.460725830078125,0.13383680803775785,-0.21548896306902168,0.011352255347929894
1768578436743699200,2.47069921875,-0.0941080242395401,-0.029676760861277577,-0.09717826199773698
1768578436753672200,2.480672119140625,-0.13446867620050906,-0.044160628765821455,-0.10652330570910125
1768578436763646200,2.490646240234375,-0.07952303404808043,-0.10392974555194377,-0.1315713473238051
1768578436773619000,2.500618896484375,-0.01621171461045742,-0.1423795954555273,-0.09179916277527808
1768578436783593000,2.510593017578125,0.020609657308459282,-0.07969166861325502,-0.05350625699907541
1768578436793566000,2.52056591796875,-0.12514146040678023,-0.03268821763694286,-0.05102711700182408
1768578436803539000,2.5305390625,-0.2565945881783962,0.03463116839826107,-0.04489168298672885
1768578436813513000,2.540512939453125,-0.2609580440849066,-0.02787292630970478,-0.024816826674714684
1768578436823486200,2.550486328125,-0.009868483063578605,-0.33475802431106566,0.042926666524074966
1768578436833460000,2.5604599609375,0.3070511022180319,-0.42916853862851856,0.08592274502255022
1768578436843433200,2.57043310546875,0.42703649503588675,-0.3774447811320424,0.13552976609338074
1768578436853406000,2.580406005859375,0.336333310803771,-0.1430257844045758,0.10465469882562756
1768578436863380000,2.5903798828125,0.1285159052759409,0.10985825881808996,0.0010498743791133164
1768578436873353000,2.60035302734375,-0.11639993554651737,0.2736775326654315,-0.16386694891396908
1768578436883327000,2.610326904296875,-0.29251813447475433,0.35611908450871704,-0.23118370460066942
1768578436893300000,2.620300048828125,-0.4095779952347278,0.4061038893833756,-0.19299495331868527
1768578436903273500,2.6302734375,-0.4749731352090835,0.3912251769423485,-0.18346315486356615
1768578436913247200,2.640247314453125,-0.4566477894455194,0.298975347790122,-0.1221698059185408
1768578436923220500,2.650220458984375,-0.3564800267755985,0.19353227506577966,-0.032864852845482524
1768578436933194500,2.660194580078125,-0.32936873248815535,0.16578677452802656,-0.03855088085895404
1768578436943167500,2.67016748046875,-0.5001648596107959,0.2377764904618263,-0.09107364324601366
1768578436953140500,2.680140380859375,-0.6085211894333362,0.29771307276934383,-0.10217775078546255
1768578436963114500,2.690114501953125,-0.5769932477474212,0.34051761075109244,-0.022151169395726172
1768578436973087200,2.700087158203125,-0.2967144171208143,0.20279227084219453,0.07117173234811053
1768578436983060500,2.710060546875,0.06362345412671566,-0.003183598472177982,0.17955600962350143
1768578436993034200,2.7200341796875,0.4631885893911123,-0.07279547935873269,0.2126907471852377
1768578437003007500,2.730007568359375,0.5004828395187855,-0.022724749766290187,0.11840566761204972
1768578437012981500,2.7399814453125,0.3440326331347227,0.1274783789217472,0.05710139541421085
1768578437022954500,2.74995458984375,0.21393325805962085,0.2478738138452172,-0.006654653849918395
1768578437032928500,2.759928466796875,0.06002163024246692,0.24493688361048696,-0.08322292974563315
1768578437042901500,2.769901611328125,-0.11879822885990142,0.24093144736140965,-0.09736021270221099
1768578437052874200,2.779874267578125,-0.13685118742287158,0.22879443484395742,-0.1244486193044111
1768578437062848300,2.78984814453125,-0.15028408496975898,0.14115180722624063,-0.11060639203796163
1768578437072821500,2.799821533203125,-0.10201952801644802,0.11295067187547683,-0.06106211573872715
1768578437082794500,2.80979443359375,-0.17775544474124907,0.12724106303453445,-0.027152667477447538
1768578437092768500,2.8197685546875,-0.12383680754899978,0.022924656252563,-0.026305823123455047
1768578437102741500,2.829741455078125,-0.000786181941628456,-0.0487029483705759,-0.019535707934014497
1768578437112715500,2.839715576171875,0.0076245035290718076,-0.061175768713653086,-0.0004929346160963177
1768578437122688300,2.849688232421875,0.06353928297460079,-0.09593757775425911,0.0009007664983160794
1768578437132661200,2.8596611328125,0.0764659845650196,-0.11494272247552871,0.008013393248803914
1768578437142635300,2.86963525390625,-0.016132219633460045,-0.1133224277973175,0.0971756316492334
1768578437152608500,2.8796083984375,0.14944471153616903,-0.19209610478281974,0.11186594537869095
1768578437162582300,2.889582275390625,0.13858371030390262,-0.12315174789428711,-0.0071388571702875195
1768578437172555500,2.899555419921875,-0.08010346428453922,0.013972411251068115,-0.041704065926559265
1768578437182529500,2.909529541015625,-0.050177112576365465,0.06362228508293628,-0.03914599720789119
1768578437192502500,2.91950244140625,0.0009913491249084472,0.08865852666199207,-0.06356807067766786
1768578437202475300,2.929475341796875,-0.12280629545748233,0.16600480119287966,-0.05613574698613956
1768578437212449300,2.93944921875,-0.0921428616464138,0.020714871248602867,-0.02046464108088985
1768578437222422300,2.94942236328125,0.08022153770625591,-0.011127250953018664,0.058438562302105125
1768578437232396300,2.959396240234375,0.10540449427962302,0.07491787834018468,0.10455315641360356
1768578437242369500,2.96936962890625,0.11010054314136504,0.07935001556873321,0.06512366608921438
1768578437252342500,2.979342529296875,0.058792380708456035,0.01299362934678793,0.07623407550528645
1768578437262316500,2.989316650390625,0.07597264809012412,0.03612316052168608,0.13905145567981525
1768578437272289500,2.99928955078125,0.0007142857491970061,0.01610416258275509,0.05414597967471927
1768578437282263600,3.009263671875,-0.11610825912356376,-0.027855975174903867,0.013749507481697947
1768578437292236300,3.019236328125,-0.09824117852151393,0.019918752434849737,0.062236876872833816
1768578437302209300,3.029209228515625,-0.0030196400821208952,-0.025962124252319335,0.023363285131845622
1768578437312183300,3.039183349609375,0.04603928211927414,-0.10151216301620006,-0.03192174504278227
1768578437322156500,3.049156494140625,0.15559154372811315,-0.0008206687331199646,-0.021367891797237096
1768578437332130600,3.059130615234375,0.20238369004130363,0.12150281164348124,-0.03072241572299972
1768578437342103600,3.069103515625,0.15425006599128246,0.15617285074740647,-0.09656895272666588
1768578437352076300,3.079076171875,0.026468320208787918,0.15188158329427243,-0.016857830494269727
1768578437362050300,3.08905029296875,0.12001871056556701,0.10289134241491556,0.0353351702154614
1768578437372023300,3.099023193359375,0.1879021602243185,0.08233809146881103,0.007614036933984607
1768578437381997300,3.108997314453125,0.16382102741301058,0.06275865399092435,-0.04621841981215402
1768578437391970300,3.11897021484375,0.10663783546686172,0.1214963819026947,-0.04532384559260681
1768578437401943600,3.128943603515625,-0.01901975776851177,0.19053192420601844,-0.05212636521430686
1768578437411917600,3.13891748046875,-0.19712766920924185,0.0763181005269289,-0.10161505713509394
1768578437421890600,3.148890625,-0.2485901454210281,0.06994564288556575,-0.060844180405419314
1768578437431864600,3.158864501953125,-0.13871698129475116,0.1325368313550949,0.008064922506641595
1768578437441837300,3.16883740234375,-0.095689740473032,-0.12561959931254385,0.13464337518028915
1768578437451810300,3.178810302734375,0.1007043537646532,-0.20792904920876024,0.23362475934354587
1768578437461784300,3.188784423828125,0.1531236923098564,-0.1491790463373065,0.22771573622915892
1768578437471757300,3.19875732421875,0.12572072159945963,-0.13642565548717975,0.20596768600791693
1768578437481731300,3.2087314453125,0.11104103886187076,-0.1486066532768309,0.13031809585969895
1768578437491704600,3.21870458984375,-0.01026478890478611,-0.09702318103387951,0.02282793614612892
1768578437501677600,3.228677490234375,0.08071136704981327,-0.04337459295466542,0.03671189279560931
1768578437511651600,3.238651611328125,0.2202700598657131,0.02488061262592673,0.014461473409645258
1768578437521624300,3.248624267578125,0.011761164942383766,0.05659750101268291,0.004287678123405203
1768578437531598300,3.258598388671875,0.03755202428102493,0.04091843197420239,0.052029106251755726
1768578437541571300,3.2685712890625,0.31254736154675483,0.13093991755247114,0.02041523071490228
1768578437551544300,3.27854443359375,-0.025329087045788762,0.21750497906655072,-0.011629090394778177
1768578437561518300,3.288518310546875,-0.30615853729248044,0.24027795188874004,-0.039472114756563675
1768578437571491600,3.29849169921875,-0.3936100262522697,0.293413914270699,-0.06936188818085938
1768578437581465600,3.308465576171875,-0.5192272874772549,0.4184307253845036,-0.015165347362682222
1768578437591438300,3.318438232421875,-0.46447219946086404,0.4652268172204494,-0.04815503216423094
1768578437601411300,3.328411376953125,-0.2943225535482168,0.2611230253882706,-0.04470172250573523
1768578437611385300,3.33838525390625,-0.09314707025289536,0.2533507839515805,0.035870062543451785
1768578437621358300,3.3483583984375,-0.021232173120975494,0.21286460591480136,0.07128085527839138
1768578437631332400,3.358332275390625,0.0784790779531002,0.14527619367986916,0.07333397014960646
1768578437641305300,3.368305419921875,0.10014145918488503,0.13297244629338384,0.061636974750924854
1768578437651278600,3.378278564453125,0.15141864195764063,0.10684241812825203,0.062437934136576945
1768578437661252600,3.388252685546875,0.07970248226821422,0.1625526149123907,0.01456349074570462
1768578437671225300,3.398225341796875,0.0029559271961450573,0.10635828787311911,-0.04668218313269317
1768578437681199400,3.408199462890625,0.051202363970875735,0.01031549617871642,-0.06324996290551498
1768578437691172400,3.41817236328125,0.003108487409353256,0.0642326720662415,-0.03562032556608319
1768578437701145300,3.428145263671875,0.06084872871637344,0.05097103943303227,-0.012068952249921858
1768578437711119400,3.438119384765625,0.07734393644332885,0.075565382463485,-0.056098958639707416
1768578437721092400,3.44809228515625,0.014921674799919127,0.08720693961419165,-0.10987142882691696
1768578437731066400,3.45806640625,0.0748322458833456,0.1468082255527377,-0.11867303157765417
1768578437741039600,3.46803955078125,-0.01648234824538231,0.18127397425621747,-0.13752669379794968
1768578437751012400,3.478012451171875,-0.07519991015195845,0.13176102467700837,-0.1594362729901448
1768578437760986400,3.487986328125,-0.05105681802034378,0.11050064837485551,-0.1428249463365413
1768578437770959400,3.49795947265625,-0.08736497972011566,0.06817169201560318,-0.1283891370911151
1768578437780933400,3.507933349609375,-0.05654080238938331,-0.028140929596126078,-0.11978895693030207
1768578437790906400,3.51790625,-0.1689572212576866,0.028428843159414827,-0.10754563449416309
1768578437800879400,3.52787939453125,-0.2409352467536926,0.12385416054259984,-0.19173023061249403
1768578437810853400,3.537853271484375,0.09293021263182162,0.014307123098149894,-0.1165892110409215
1768578437820826400,3.547826416015625,0.49032969429492945,0.031819325847923755,0.02119655381832272
1768578437830800400,3.55780029296875,0.5639677619576454,0.0808624111593701,0.04664269137252122
1768578437840773400,3.5677734375,0.3900783449947834,0.11131667746547609,0.07946582396812736
1768578437850746400,3.577746337890625,0.18006547524929045,0.133749513346795,0.09145553696937858
1768578437860720400,3.587720458984375,0.14077683643400668,0.2329556461766362,0.1374392895091325
1768578437870693400,3.597693359375,-0.1581213544666767,0.36412641334291546,0.1523979353185743
1768578437880667400,3.60766748046875,-0.43332828865647316,0.38145898520946503,0.08693203166294843
1768578437890640400,3.617640380859375,-0.31055706451237197,0.4093568998299539,-0.000018704700469970702
1768578437900613400,3.62761328125,-0.2569388715714216,0.30144628621460867,-0.06963749025184661
1768578437910586400,3.63758642578125,-0.1610270127803087,0.1407505694815889,-0.08852481727972626
1768578437920559400,3.647559326171875,0.03285714446306229,0.1079487719349563,-0.012596812048926948
1768578437930533400,3.657533447265625,0.09338906231522559,0.0638080899786204,-0.016071210161224005
1768578437940506000,3.667506103515625,0.16587562185525892,0.01671703378409147,0.007302687696181237
1768578437950480100,3.677480224609375,0.2295341472953558,0.012813304343819618,0.04546973860301077
1768578437960453400,3.687453369140625,0.3153980748027563,0.03311944866105914,0.06276358589436859
1768578437970426400,3.69742626953125,0.27962767324149607,-0.004336202573403716,0.08445804276484996
1768578437980400400,3.707400390625,0.23533844965994358,-0.008903510488942265,0.06532393790166825
1768578437990373400,3.717373291015625,0.19723522123694417,0.04142660069204867,0.035714945046976206
1768578438000347400,3.727347412109375,0.12210311562418937,0.10847257661335169,0.02950279253385961
1768578438010320400,3.7373203125,-0.06509528024494647,0.00462510251738131,-0.024423461709264665
1768578438020293000,3.747293212890625,-0.01864040306210518,0.09130407273471355,-0.022077592702861873
1768578438030267100,3.75726708984375,-0.09580021511018276,0.13195084816068411,-0.016024430143740026
1768578438040240400,3.767240478515625,0.06019114159047603,0.019433891527354717,0.015969138026237485
1768578438050214400,3.77721435546875,0.253635153850913,0.03324599765017629,-0.006400916550867259
1768578438060187400,3.7871875,0.07682137387394905,0.07338073190078138,-0.04334341236511245
1768578438070160400,3.797160400390625,0.006569441518187523,0.012274959683418274,-0.029099253234267233
1768578438080134400,3.807134521484375,0.04834755906164646,0.05669350873306393,-0.009664722386095672
1768578438090107100,3.817107177734375,-0.006698620855808257,0.08874342846646904,-0.010364614283759146
1768578438100081200,3.8270810546875,0.029902970832586286,0.0814123549260199,0.006773019532579928
1768578438110054100,3.83705419921875,0.016761165186762808,0.05175882880985737,0.02060192152657546
1768578438120028200,3.847028076171875,-0.07525777781903743,0.0971067676641047,0.024093599567236376
1768578438130001400,3.85700146484375,-0.05885726263821125,0.0639038785032928,-0.01583510898356326
1768578438139974400,3.866974365234375,-0.055088850015401834,-0.05079962838888168,-0.08068871682658792
1768578438149948400,3.876948486328125,-0.05537175861001015,-0.02300663544759154,-0.060927556973090394
1768578438159921400,3.88692138671875,0.05494271954298019,-0.016627455804497003,-0.002763637760747224
1768578438169895400,3.8968955078125,0.11568038910031318,-0.1052051723152399,0.03153910240074619
1768578438179868200,3.9068681640625,0.1345809044033289,-0.12960925347059965,0.030586678780429064
1768578438189841200,3.916841064453125,0.05100128844082355,-0.12164075880944727,0.0034716398996300995
1768578438199815200,3.926815185546875,-0.008927987343072891,-0.16412877818793056,0.014122231517918407
1768578438209788400,3.936788330078125,-0.002359130346775055,-0.15899199982136486,-0.023122315982822328
1768578438219762400,3.946762451171875,0.27183716549575326,-0.20607377673089503,-0.005697389657702297
1768578438229735400,3.9567353515625,0.8352525542676449,-0.166278357437253,0.01340847549168393
1768578438239708400,3.96670849609375,0.7868266692727803,0.04379471806287765,0.053100014285743236
1768578438249682400,3.976682373046875,0.4890495913565159,0.07946721220761536,0.059061187712475656
1768578438259655200,3.9866552734375,0.18276187472641467,0.08275310201048851,-0.02464302274407819
1768578438269629200,3.996629150390625,0.0883083980500698,0.11076631357371806,-0.07099862253721803
1768578438279602200,4.006602294921875,0.10885317342877388,0.16086802282631396,-0.08286606086567044
1768578438289576200,4.016576171875,-0.07182312719523906,0.018683657681941985,-0.03729302628496661
1768578438299549400,4.026549560546875,0.09487667052447796,-0.04273527213782072,0.030705921245925128
1768578438309522400,4.0365224609375,0.19199439797401427,-0.06960340531915425,0.03469257972929626
1768578438319496400,4.046496337890625,0.21965864996910095,-0.11237871720641851,0.06634391033286229
1768578438329469200,4.05646923828125,0.3401367947399616,-0.13151304126530886,0.049511415209248656
1768578438339443200,4.066443115234375,0.4654179558783769,-0.10936404556035995,0.0669147872896865
1768578438349416200,4.076416259765625,0.3168611330926418,-0.048563539899885655,0.042372046582307664
1768578438359390200,4.08639013671875,0.1045557684957981,0.03841653215587139,-0.04129075415162369
1768578438369363200,4.09636328125,0.07813537908196448,0.0968219593733549,-0.08104984175655991
1768578438379336400,4.10633642578125,-0.043966567498445505,0.05726064109653234,-0.08078914499375969
1768578438389310500,4.116310546875,0.012949497944116591,0.10829086337089538,-0.06907408421542495
1768578438399283500,4.126283447265625,-0.01764087063074112,0.09073357937037944,0.00697117245318368
1768578438409257500,4.136257568359375,-0.03168926972746849,0.07395283270031214,0.09441199388848617
1768578438419230200,4.146230224609375,0.07544774743318557,0.06790887636095284,0.038805750669166444
1768578438429203200,4.156203125,0.0016384148567914962,0.030474633240699767,0.006007222791854292
1768578438439177200,4.16617724609375,-0.08366729424595833,-0.012190496270358562,0.02188610698506236
1768578438449150200,4.176150146484375,0.08276070079505443,0.06228723708689213,-0.027653073013946414
1768578438459124200,4.186124267578125,0.32176702531278134,0.094188395999372,-0.0636072153779678
1768578438469097500,4.196097412109375,0.2580792737782001,0.042567514355480666,-0.06879938632673584
1768578438479071500,4.206071533203125,0.1618424208164215,0.10259469755589962,-0.11498054286842234
1768578438489044500,4.21604443359375,0.15537293254137038,0.16693506778031586,-0.15465769694410264
1768578438499017200,4.226017333984375,-0.07399871766865253,0.12738222507089375,-0.12675843061674386
1768578438508991200,4.2359912109375,-0.1418295603573322,0.10828647945672273,-0.08137194071724078
1768578438518964200,4.245964111328125,-0.16618483393490313,0.10430851573646067,-0.040114618477760815
1768578438528938200,4.255938232421875,-0.22850421972572801,0.09599252281188965,0.003324717126053292
1768578438538911200,4.2659111328125,-0.27145897983312606,0.0931973391354084,0.0018150706149288453
1768578438548884500,4.275884521484375,-0.252264450019598,0.16830431030690668,-0.03359709437647834
1768578438558858500,4.2858583984375,-0.2851753704965114,0.1504834069341421,-0.06449629143849014
1768578438568831200,4.295831298828125,-0.1460959856301546,0.03469897293746471,-0.030574609316722488
1768578438578805200,4.30580517578125,-0.10411737707853316,0.02256254494190216,-0.023198650888353586
1768578438588778200,4.3157783203125,-0.2908423102170229,0.003144727766513824,-0.022847161436406895
1768578438598752300,4.325752197265625,-0.3433890745341778,-0.0038783027380704877,-0.012376571735745528
1768578438608725200,4.335725341796875,-0.2965484129041433,0.02732815190851688,-0.010989182772755157
1768578438618698200,4.3456982421875,-0.364711264026165,0.01221884558200836,0.007913841864466666
1768578438628672300,4.35567236328125,-0.18135551505982875,0.0021457798570394516,0.04343091711862944
1768578438638645500,4.3656455078125,-0.1424269417285919,-0.056390580263733864,0.001508459201036021
1768578438648619500,4.37561962890625,-0.27600656013488767,-0.04183247807919979,-0.034239337802771476
1768578438658592300,4.38559228515625,-0.20661445947885512,-0.12741641960144043,-0.020535231232224033
1768578438668565200,4.395565185546875,-0.26503976044058797,-0.16923896080851553,-0.06119398935693316
1768578438678539300,4.405539306640625,-0.3165121735244989,-0.10768179156184196,-0.10726531971544026
1768578438688512300,4.41551220703125,-0.1820762305498123,0.04916413614153862,-0.06800018963990732
1768578438698486300,4.425486328125,-0.2622878313839435,0.08895897091329097,-0.014145575860887764
1768578438708459300,4.435459228515625,-0.5085287833303213,0.08333996198773383,0.0060537744804751124
1768578438718433300,4.445433349609375,-0.4399667037576437,0.11569266405999659,-0.01403397784573026
1768578438728406500,4.455406494140625,-0.30682080059349537,0.10838263330757618,-0.029877187937358392
1768578438738379300,4.465379150390625,-0.30630291419923306,0.1106909102499485,0.013123731133015825
1768578438748353300,4.475353271484375,-0.14801672455966472,0.1657546258240938,0.019373621840635312
1768578438758326300,4.485326171875,-0.13832009093165396,0.22098200752735137,-0.01183791083986871
1768578438768300300,4.49530029296875,-0.1139496197849512,0.13613164097666738,-0.03333858043760993
1768578438778273300,4.505273193359375,0.0013666121780872343,0.04394786279797554,-0.02325808945801109
1768578438788246300,4.515246337890625,0.15809329741597175,-0.035165421405434605,-0.006188027285435237
1768578438798220300,4.52522021484375,0.2677443432241678,-0.028816929161548613,0.0387058019926073
1768578438808193300,4.535193359375,0.217351542070508,0.02505085462629795,0.04237358095226809
1768578438818167300,4.545167236328125,0.12081716746687889,0.03444412139356136,0.03241166343459626
1768578438828140300,4.555140380859375,0.2530132225602865,0.030927053183317184,0.032744674231647515
1768578438838114300,4.5651142578125,0.3406576037436724,0.044862639555335045,-0.031122404508769977
1768578438848087300,4.57508740234375,0.1647843194872141,-0.008610007435083389,-0.11442628825283609
1768578438858060300,4.585060302734375,0.05751461585760116,0.00029459903240203856,-0.11121508025452494
1768578438868034300,4.595034423828125,-0.003161094379425049,0.022294249394536017,-0.049881166403670796
1768578438878007300,4.60500732421875,-0.10926876849234103,-0.014206220006942749,-0.01755648484949488
1768578438887981300,4.614981201171875,-0.07697802574038505,-0.04674187743067741,-0.07402940506786107
1768578438897954800,4.624954833984375,-0.03299742971658706,0.08398995032906532,-0.1379684370829258
1768578438907928800,4.6349287109375,-0.1349111592710018,0.09929214887917041,-0.1303825393980369
1768578438917902000,4.644902099609375,-0.17541618813872337,0.04000876978337765,-0.09082140378430485
1768578438927875000,4.654875,-0.14495090724825857,-0.019053075516223907,-0.010436391745181753
1768578438937849000,4.66484912109375,0.05567278738319874,-0.04506371508538723,0.0048538697719573975
1768578438947821800,4.67482177734375,0.140013450846076,0.030726562175154685,-0.0602196187662892
1768578438957795800,4.6847958984375,0.02275952881872654,0.08799567883908749,-0.022662534717656672
1768578438967768800,4.694768798828125,-0.005639467191696166,0.050838206833601,0.005723665743274614
1768578438977742800,4.704742919921875,-0.05632160668075084,0.04039046257734299,-0.04614393893699161
1768578438987715800,4.7147158203125,-0.1599158366680145,-0.014928689062595367,-0.08614270791616291
1768578438997689000,4.724689208984375,-0.2833049004495144,-0.06089315237998962,-0.1594128555819392
1768578439007663000,4.7346630859375,-0.2970686373859644,0.005944587618112564,-0.1568074953891337
1768578439017636000,4.744635986328125,-0.19839257457852363,0.02135258463025093,-0.0963483322459273
1768578439027609900,4.75460986328125,-0.27860066828131674,0.03197977710664272,-0.07811869280864484
1768578439037582800,4.764582763671875,-0.21558803952932357,-0.005815408280491829,-0.07731693883854895
1768578439047555800,4.774555908203125,0.00017535656690597534,-0.027485388296842574,-0.09008181919706985
1768578439057529900,4.78452978515625,0.09702654203474521,0.03696282621622085,-0.14107065001511945
1768578439067502800,4.7945029296875,0.147956518805027,0.052792263510823244,-0.10076689760684966
1768578439077476900,4.804476806640625,0.320104060536623,0.051014147922396655,0.013361937502794899
1768578439087450000,4.8144501953125,0.22918518772721289,0.09513386015594005,0.03128175750565715
1768578439097424100,4.824424072265625,0.1043687214910984,-0.006612111616134643,-0.003537521909805946
1768578439107396900,4.83439697265625,0.2918769139617681,-0.028655601119995114,-0.05432793037919327
1768578439117369900,4.844369873046875,0.3989338516235351,-0.012709259447455405,-0.13193288324573077
1768578439127343900,4.85434375,0.3096159842699766,-0.06909107188284397,-0.09462978309132158
1768578439137316900,4.86431689453125,0.2249848134279251,-0.09964753818809985,-0.03215649451357312
1768578439147291000,4.874290771484375,-0.1909118634343147,-0.17090367915034294,0.06523661124466452
1768578439157264000,4.884263916015625,-0.41209670005738736,-0.25081015955805774,0.13577022378575057
1768578439167237000,4.894237060546875,-0.41223932339847086,-0.041436172237992286,-0.007965275224181823
1768578439177211100,4.904211181640625,-0.31703181348443027,0.10604863740205764,-0.15484141948055474
1768578439187183900,4.914183837890625,-0.3604723112821579,0.06264847161471844,-0.1287448551936075
1768578439197158000,4.924157958984375,-0.2860708580315113,-0.06426818177103996,-0.05210736825289204
1768578439207131000,4.934130859375,-0.16897358787059782,-0.15356617538034914,-0.03167343740409705
1768578439217105000,4.94410498046875,0.13542787662148476,-0.20222236199975013,0.004195277999062091
1768578439227078000,4.954077880859375,0.35566754134893414,-0.20120120225846766,0.006031402818462811
1768578439237051100,4.964051025390625,0.24262568405866622,-0.09585749825537204,-0.028907703584386032
1768578439247025000,4.97402490234375,0.262887550842762,-0.1474818870306015,0.02463767756539164
1768578439256998000,4.983997802734375,0.31020576685667034,-0.10656593927443027,0.060679463963536545
1768578439266972000,4.993971923828125,0.25547581328153607,-0.05572480983138084,0.03374497156470315
1768578439276945000,5.00394482421875,0.3338414939880371,-0.09704583125710486,-0.027298441756842658
1768578439286919000,5.0139189453125,0.33643151048123837,-0.06818272486627101,-0.09425515935895964
1768578439296892000,5.023891845703125,0.2559919461101293,-0.14562836811840532,-0.1203658709022682
1768578439306865000,5.033864990234375,0.18756898274719713,-0.13611235175430775,-0.0622897578375414
1768578439316839000,5.0438388671875,0.2625917827665806,-0.09977905561327934,-0.00380925608985126
1768578439326812000,5.05381201171875,0.3330406989991665,-0.08974456833302974,0.015319051503494847
1768578439336786000,5.063785888671875,0.12310498614311217,-0.10858896953463554,0.027679280600859783
1768578439346759000,5.073759033203125,0.045105216139554975,-0.1331821435213089,0.04901719281836413
1768578439356732000,5.08373193359375,0.05298515573441982,-0.13418869021534918,0.028726191271329297
1768578439366706000,5.093705810546875,0.028855507606267927,-0.1458773744434118,0.0024505623567383735
1768578439376679000,5.103678955078125,-0.04411620510220527,-0.16698504440188408,-0.0037685130875092
1768578439386653000,5.11365283203125,-0.021768764215707778,-0.17864917871057986,-0.017373881124472246
1768578439396626000,5.1236259765625,0.059304421883821484,-0.152466105183959,-0.03622275757179595
1768578439406600000,5.133599853515625,0.08220891213119029,-0.06268295840620994,-0.02349240053738467
1768578439416573000,5.143572998046875,-0.06148351948857307,-0.03068739920854568,-0.009001481837546453
1768578439426546000,5.1535458984375,-0.08940028494000435,-0.07695698295235634,0.0035656474591698496
1768578439436520000,5.16352001953125,-0.06349310574531555,-0.08723287777304649,-0.04705427698125131
1768578439446493000,5.173492919921875,-0.07556348276734352,-0.12563771949112415,-0.10982594571737572
1768578439456467000,5.183467041015625,-0.00720481681227684,-0.14057459186017512,-0.09020151832029223
1768578439466440000,5.19343994140625,-0.02096446209549904,-0.08735504284799099,-0.04829977439716458
1768578439476414000,5.2034140625,-0.03876782981157303,-0.033170448195934295,-0.012753664844762534
1768578439486387000,5.213386962890625,-0.11468787093162536,-0.14492869541645048,-0.0266278764183633
1768578439496360000,5.22335986328125,-0.09924830973744392,-0.19725392593741417,-0.012203684545494616
1768578439506334000,5.233333984375,0.04851005614697933,-0.18335048826932906,-0.04151665359567851
1768578439516307000,5.243306884765625,0.09719780694842338,-0.21496669276058672,-0.07099230239428579
1768578439526281000,5.253281005859375,-0.03672434128522873,-0.19095453353226183,-0.027001952161453662
1768578439536254000,5.26325390625,-0.11731997300088405,-0.15661153442561626,0.03431640336066484
1768578439546227000,5.27322705078125,-0.046052141600847245,-0.15954115813672543,0.01613159857895225
1768578439556201000,5.283200927734375,-0.11970891396403312,-0.18374211793541906,-0.005886646885797381
1768578439566174000,5.293174072265625,-0.10756547170579432,-0.14779285267591474,-0.04196589520052075
1768578439576148000,5.30314794921875,-0.013612345767021179,-0.1565279477953911,-0.0671544777970761
1768578439586121000,5.313120849609375,0.06784428669214249,-0.1619388669282198,-0.0439516987228766
1768578439596094700,5.3230947265625,0.07585574371218681,-0.19854396574795244,-0.037109066286496815
1768578439606068000,5.33306787109375,0.01047521678507328,-0.14904782117307186,-0.00644007951747626
1768578439616041000,5.343041015625,0.08635141876339912,-0.1393079329252243,-0.007171572129800915
1768578439626015000,5.353014892578125,0.13011807977557183,-0.22259411889910696,0.004862747198157012
1768578439635988000,5.362988037109375,0.17496844437122344,-0.20184300729334353,0.03213748841900378
1768578439645962000,5.3729619140625,0.06146656835377216,-0.1065343750923872,-0.014823109796270727
1768578439655935000,5.38293505859375,-0.09335048387050628,-0.1431681154847145,-0.015509740353561938
1768578439665908000,5.392907958984375,-0.05365443329811096,-0.11993453941345214,0.007277114863507449
1768578439675882000,5.402882080078125,0.023116087171435356,-0.05710837314426899,0.019094320842064916
1768578439685855000,5.41285498046875,0.041805590072274204,-0.08016717717051505,0.016541932945512233
1768578439695829000,5.4228291015625,-0.0028758476972579957,-0.1260065528035164,0.04579107951186597
1768578439705802000,5.432802001953125,-0.02691606397628784,-0.17210604067742824,0.07592369438186287
1768578439715776000,5.44277587890625,0.20504852533638476,-0.2523620651751757,0.07378697461411357
1768578439725749000,5.4527490234375,0.4348907156676054,-0.22845161275565623,0.030418519139289855
1768578439735721700,5.4627216796875,0.24134850372970104,-0.03793371707499027,0.1375487412329763
1768578439745695700,5.47269580078125,-0.07515373292267322,-0.01571662456989288,0.22379428846910596
1768578439755669000,5.4826689453125,-0.14422376201748846,-0.07127426114082336,0.16827194240726528
1768578439765643000,5.49264306640625,-0.10781681611835955,-0.07568973949551581,0.023377222325652838
1768578439775616000,5.502615966796875,-0.23229835131168364,-0.044373979255557056,-0.06052249243669212
1768578439785589000,5.512589111328125,-0.293604176145792,-0.06194529178142547,-0.012177636788785457
1768578439795563000,5.52256298828125,-0.12735446028113365,-0.037359716579318046,0.04775814180113375
1768578439805536000,5.532535888671875,0.02508475689589977,-0.029482115072011945,0.045692952899634834
1768578439815510000,5.542510009765625,0.16777356443107128,-0.009033785805106163,0.031389775324240324
1768578439825482800,5.552482666015625,0.3256009043872356,-0.0037619828820228576,-0.002495835403725505
1768578439835456800,5.562456787109375,0.25697686549425125,-0.06341770242154599,0.040529140395671126
1768578439845430000,5.572429931640625,0.21552315759956836,-0.07113865206241607,0.12446845651604234
1768578439855403000,5.582403076171875,0.219093417301774,-0.12781564805209636,0.11698599180616438
1768578439865377000,5.592376953125,0.12522329347133634,-0.16638941659629344,0.11468940530158579
1768578439875350000,5.60235009765625,-0.047268531653285026,-0.13363280989825724,0.13505794733054935
1768578439885324000,5.612323974609375,-0.15366203697025774,-0.03112052992880344,0.14525719671845436
1768578439895297000,5.622297119140625,-0.18293197059631347,-0.019859131202101706,0.07512158421874046
1768578439905270500,5.6322705078125,-0.2989882072716951,-0.042324645510315895,-0.022240619511157272
1768578439915243500,5.642243408203125,-0.33354572591185566,-0.018597148442268372,-0.021849574366956948
1768578439925216800,5.652216796875,-0.26973113312721253,-0.08388122925758361,0.020231471645832062
1768578439935190800,5.662190673828125,-0.2076034705162048,-0.09446282902657985,0.06827230284586548
1768578439945163500,5.67216357421875,-0.1535778658181429,-0.1022287868529558,0.06975377357527614
1768578439955137500,5.682137451171875,-0.07156535304188728,-0.10493979937732219,0.14657894684150813
1768578439965110500,5.692110595703125,0.010630115085840225,-0.02957213144302368,0.22392945915609597
1768578439975083500,5.70208349609375,0.08933306492269039,-0.12107669518589972,0.2000593387469649
1768578439985057500,5.7120576171875,0.02957739214003086,-0.22991174843609333,0.12625146747529506
1768578439995030500,5.722030517578125,-0.17909283082485197,-0.20368775837719438,0.15416998649239538
1768578440005004500,5.732004638671875,-0.23934008651673794,-0.15409078377634286,0.22131211626455186
1768578440014977500,5.7419775390625,-0.18285247561931608,-0.12921850058734416,0.17176994059085846
1768578440024951600,5.75195166015625,-0.22390052532255647,-0.13931027101278304,0.11450739979818463
1768578440034924500,5.761924560546875,-0.28788989015221594,-0.1608770829156041,0.10187500497922301
1768578440044897500,5.7718974609375,-0.2860486461997032,-0.09566489829272032,0.131654495562613
1768578440054871600,5.78187158203125,-0.17885200780630112,-0.04873918872773647,0.1589401235036552
1768578440064844500,5.791844482421875,-0.02039572229683399,-0.063149114613235,0.10991773392036557
1768578440074818600,5.801818603515625,-0.08090951997041702,-0.011317220567166804,0.15215733149573207
1768578440084791600,5.81179150390625,-0.013020225092768668,-0.03545066808760166,0.1682718693420291
1768578440094764500,5.8217646484375,0.26792379144430156,-0.0866901491984725,0.14863690228462217
1768578440104738600,5.831738525390625,0.21289690074920653,-0.1530938816934824,0.09558598783761263
1768578440114711600,5.841711669921875,0.17656711173951625,-0.05286445196419954,0.11138999843001365
1768578440124685600,5.851685546875,0.16071955426633358,-0.03932838630378246,0.1649234356969595
1768578440134658600,5.861658447265625,0.045938744354248044,-0.12428221322894095,0.1548760889351368
1768578440144632600,5.871632568359375,-0.056707975649833674,-0.12099106272906064,0.14844985527992247
1768578440154605600,5.88160546875,-0.12087854226529597,-0.13694471092522142,0.13545242654085157
1768578440164578600,5.89157861328125,-0.1331213532447815,-0.03687923958599567,0.12747954796552657
1768578440174552600,5.901552490234375,0.06429740786552429,0.09585136077553033,0.08294745553880929
1768578440184525600,5.911525634765625,0.23943419454097747,0.10605974331796168,0.054881052483618256
1768578440194499600,5.92149951171875,0.25516075598299504,0.044267888532578945,0.06944178501665592
1768578440204472600,5.93147265625,0.13348024968504904,0.012090543027222156,0.11660247238129377
1768578440214445600,5.941445556640625,-0.0800303990483284,-0.018886194516718385,0.11921674653291701
1768578440224419600,5.951419677734375,-0.0030459435671567913,-0.01597995168119669,0.08349193767905234
1768578440234392600,5.961392578125,0.0770627814143896,0.019501988327503203,-0.015122165808081626
1768578440244366600,5.97136669921875,0.020894903990626334,0.011835399222373961,-0.010683306577801704
1768578440254339600,5.981339599609375,0.006684007808566093,-0.036681378926336765,0.030819793416559695
1768578440264313300,5.991313232421875,-0.06788637226819992,-0.015195523305237293,0.012347732658684253
1768578440274286600,6.00128662109375,-0.036435587471723554,0.024197744928300378,-0.0015688567519187926
1768578440284259600,6.011259521484375,-0.06383680461645126,0.004444119927287101,-0.019876959119737147
1768578440294233600,6.021233642578125,-0.08546177644729613,-0.018488427370786667,0.03071487173736095
1768578440304206600,6.03120654296875,0.033468554359674454,-0.027742285667359826,0.04073503823131323
1768578440314180600,6.0411806640625,0.1918880149900913,-0.051048634713888166,0.022784955520927904
1768578440324153600,6.051153564453125,0.2565337979018688,-0.08942103546708821,0.034004268671572205
1768578440334127600,6.061127685546875,0.2692512406557798,-0.09840396786779165,-0.003915712139010429
1768578440344100400,6.071100341796875,0.12603285628855226,-0.0977826210990548,-0.011907295414805412
1768578440354073600,6.081073486328125,0.12217851894795893,-0.0012163900524377821,0.03869330327063799
1768578440364047600,6.091047607421875,0.10317395874857901,0.034216450117528434,0.05368278260976076
1768578440374020600,6.1010205078125,-0.06895254019498824,-0.031951135534048075,0.008308686400949955
1768578440383994600,6.11099462890625,-0.06427227342426776,-0.02961655510663986,-0.0044195700079202645
1768578440393967600,6.120967529296875,-0.1412421158581972,-0.017625088539719582,0.023213702327013013
1768578440403940600,6.130940673828125,-0.24789339532852173,-0.027307693642377853,-0.017136135978996752
1768578440413914600,6.14091455078125,-0.2416939561665058,0.0032519875332713125,-0.053719022966921326
1768578440423887600,6.1508876953125,-0.23124971904158592,-0.014701310047507285,-0.05156505980342626
1768578440433861400,6.160861328125,-0.2638929284930229,-0.03534983806163072,-0.005086217223107815
1768578440443834600,6.170834716796875,-0.15318857423961163,-0.08256079430878162,0.08309680088162422
1768578440453807600,6.1808076171875,-0.12148001528978347,-0.07076105092167854,0.09836948107630014
1768578440463781600,6.19078173828125,-0.21070552818477153,-0.039461072772741315,0.1290282387122512
1768578440473754600,6.200754638671875,-0.20734628088474272,-0.10301701462119817,0.05789718543440103
1768578440483728600,6.210728759765625,-0.13109598489701746,-0.11437339815497398,0.05168430226892232
1768578440493701400,6.220701416015625,0.06385492479503155,-0.05548223324716091,0.14783873764425515
1768578440503675400,6.23067529296875,0.07324059277772903,-0.05478372958898544,0.1534706060513854
1768578440513648400,6.2406484375,-0.2689315071821213,-0.015723638832569123,0.0026718495577573776
1768578440523621600,6.25062158203125,-0.4460129981845617,0.13166823182702064,-0.09090367524027824
1768578440533595600,6.260595703125,-0.4705027117967605,0.15796791747063396,-0.03605360241681337
1768578440543568600,6.270568603515625,-0.32385552202463147,0.07339110716432333,0.04992255329340696
1768578440553542700,6.280542724609375,-0.04329904350042343,0.0028387305572628975,0.040922377496957776
1768578440563515600,6.290515625,0.08495499596893787,-0.0027738486275076866,0.03309884426444769
1768578440573488400,6.30048828125,0.2295768173933029,-0.05370353313684463,0.11110972018390894
1768578440583462400,6.31046240234375,0.3178302703857422,-0.13707505930662153,0.1640115815490484
1768578440593435600,6.320435546875,0.18398001834452152,-0.15097498984336852,0.07403145089447498
1768578440603409400,6.330409423828125,0.009788403564691543,-0.08867197066545486,0.054584992146492
1768578440613382700,6.340382568359375,-0.1347580145359039,-0.003333820597827434,0.06483224539458751
1768578440623356700,6.350356689453125,-0.1215396365225315,-0.005646773715317249,0.0036935938209295273
1768578440633329700,6.36032958984375,-0.17713643606007098,0.030396599568426608,0.03431085040271282
1768578440643302700,6.370302734375,-0.2917997570723295,-0.004834872810542583,0.15113631788492202
1768578440653276700,6.380276611328125,-0.38876843143999573,-0.007677695021033286,0.09956628964543342
1768578440663249400,6.39024951171875,-0.17616262259185314,0.015968991895765065,0.06504676492810249
1768578440673223400,6.400223388671875,0.05578443106412887,-0.03948080038651824,0.11841419797837734
1768578440683196700,6.41019677734375,0.12447452093064784,-0.16388064864575863,0.16559212873876095
1768578440693170400,6.42017041015625,0.12340133874118327,-0.09859481426477432,0.20513971075117587
1768578440703143700,6.430143798828125,0.1302057580590248,-0.0011927169159054755,0.1344885499447584
1768578440713116700,6.44011669921875,0.09254501270651817,-0.0069097793884575365,0.06193710847496986
1768578440723090700,6.450090576171875,0.05508534288406372,-0.027223084098845718,0.04350537972748279
1768578440733063400,6.4600634765625,-0.00438449869453907,-0.02806757209897041,0.015488076511025428
1768578440743037400,6.470037353515625,-0.09028174394965172,-0.020886282292753456,0.0937286695331335
1768578440753010400,6.480010498046875,-0.046692777591943735,-0.042224546136707064,0.10357786337435244
1768578440762983700,6.489983642578125,-0.0667366177111864,-0.07749050530716776,0.048643911659717556
1768578440772957400,6.49995751953125,-0.19464520474374294,-0.09987287137657404,0.17597382202148437
1768578440782930700,6.5099306640625,-0.15092589000463486,-0.08709770708605646,0.20349252806603907
1768578440792904700,6.51990478515625,-0.10514262847304344,-0.07322378777340054,0.10265548783242702
1768578440802877700,6.529877685546875,-0.08940729920268058,-0.12835823049619793,0.17110007850527761
1768578440812851700,6.539851806640625,0.14035890328288078,-0.26236674183905123,0.23741291784644125
1768578440822824400,6.549824462890625,0.33288813878595824,-0.39166736775189637,0.26261107198894024
1768578440832797400,6.55979736328125,0.34857962891459465,-0.3396839364059269,0.28540684116482734
1768578440842771500,6.569771484375,0.3352969534933567,-0.23650427856892345,0.18793430892825125
1768578440852744700,6.57974462890625,0.26249241404533386,-0.09863806888461113,0.10998656137287616
1768578440862718500,6.589718505859375,0.15745149238109588,0.0014604279413819312,0.06450082148313523
1768578440872691700,6.599691650390625,0.1384019239962101,-0.06669760087504982,-0.012623334729671478
1768578440882664700,6.609664794921875,0.011304068824648857,-0.028599925410002468,0.05018354231715202
1768578440892638700,6.619638671875,-0.0666448477745056,0.05061053555756807,-0.011329787787795066
1768578440902615600,6.629615478515625,-0.22534721699953078,0.02874196422919631,-0.06542202798128127
1768578440912589600,6.639589599609375,-0.21715455819368362,-0.03909107041656971,-0.06916647520661354
1768578440922562600,6.6495625,-0.155860423797369,-0.007754851910471916,-0.06324351489841938
1768578440932536600,6.65953662109375,-0.08276713053584098,-0.007189326982200145,-0.019817045626044274
1768578440942509300,6.66950927734375,0.0705798491358757,-0.023416239161789417,-0.07268237437307834
1768578440952482600,6.679482666015625,0.13277882341742514,0.0018016425944864748,-0.11222586473226547
1768578440962456600,6.68945654296875,0.10543372037410735,-0.004302519499510526,-0.08952186549305916
1768578440972429600,6.6994296875,-0.030001170510053632,0.02350888588130474,-0.07520166371762751
1768578440982403600,6.709403564453125,-0.11632336317896842,0.04715878766849637,-0.08220306691229343
1768578440992376600,6.71937646484375,-0.10198153409361839,0.06091331838518381,-0.08097440190017223
1768578441002349600,6.729349609375,-0.05327566311359405,0.04235460225716233,-0.005827683240175247
1768578441012323600,6.739323486328125,-0.007484218275547027,-0.06031067631691694,0.010621931779384612
1768578441022296300,6.74929638671875,-0.04658054938912391,0.004422492617368698,-0.008314239358901977
1768578441032270300,6.759270263671875,-0.1366588797211647,0.09909458048045634,-0.03714753513336182
1768578441042243600,6.76924365234375,-0.17094927185773848,0.07591960272863507,-0.03234861041903496
1768578441052217600,6.779217529296875,-0.0903606544047594,0.08659136499911546,0.058764908179640765
1768578441062190600,6.789190673828125,-0.12271803265213965,0.11814034947305917,-0.002747252881526947
1768578441072163600,6.79916357421875,-0.16632278110086918,0.17255992192476988,-0.02862929763495922
1768578441082137600,6.8091376953125,-0.31055063477158545,0.1419461724743247,0.016125205370783807
1768578441092110600,6.819110595703125,-0.3335106545984745,0.0999178795620799,-0.006116437053680419
1768578441102084600,6.829084716796875,-0.1716553743004799,0.11528174517154693,-0.04730068035721779
1768578441112057300,6.839057373046875,-0.15550971066355704,0.13321516900807617,0.03628068917095661
1768578441122031400,6.84903125,-0.287783507168293,0.0728130150154233,0.09056406802237034
1768578441132004600,6.859004638671875,-0.27975100736021996,0.036789515475928784,0.06129530344009399
1768578441141977600,6.8689775390625,-0.26142975324988366,-0.03662599547728896,0.048584874948859214
1768578441151951600,6.87895166015625,-0.3389344332128763,-0.03476443938910961,0.17953940554857253
1768578441161924600,6.888924560546875,-0.3476572533726692,-0.06202844002023339,0.21645137836039066
1768578441171898600,6.898898681640625,-0.38224692071676253,-0.01929316788241267,0.05791033717691898
1768578441181871400,6.908871337890625,-0.3880477159500122,0.08364537467509507,0.013390811970829962
1768578441191844400,6.91884423828125,-0.38583120894432066,-0.0036937399514019487,0.015299275940656661
1768578441201818400,6.928818359375,-0.3333177623748779,-0.1284821491368115,0.07110007361769675
1768578441211791600,6.93879150390625,-0.1993827546596527,-0.14896613423898816,0.10391279441714286
1768578441221765600,6.948765625,-0.21233342164754868,-0.10392930716052651,0.11795008759796619
1768578441231738600,6.958738525390625,-0.2650911983668804,-0.12321677595451473,0.1267109016805887
1768578441241711600,6.968711669921875,-0.2577577867388725,-0.11976298223882913,0.05902385137677192
1768578441251685600,6.978685546875,-0.28044425032138826,-0.08647460675165057,0.06484276678860187
1768578441261658400,6.988658447265625,-0.32389994568824765,-0.054622255416959524,0.12436930699050426
1768578441271632400,6.99863232421875,-0.22760230244994162,-0.038305180735886096,0.12454817068874835
1768578441281605400,7.00860546875,-0.17526012079417705,-0.012798252905160188,0.13135025191903113
1768578441291579400,7.018579345703125,-0.16200082624852657,-0.055137511462718246,0.17888181842267512
1768578441301552600,7.028552734375,-0.03495908517837524,-0.07736088757812977,0.14823475122451782
1768578441311525600,7.038525634765625,-0.0034270518392324444,-0.0586010959200561,0.121661801597476
1768578441321499600,7.048499755859375,-0.005633037450909614,-0.037805268389731646,0.16056290239989757
1768578441331472600,7.05847265625,0.05053834710419178,-0.1249764791034162,0.15183306797742843
1768578441341446700,7.06844677734375,0.09336158978641032,-0.15283523075729608,0.17583470581173896
1768578441351419400,7.07841943359375,0.0755424399793148,-0.09000380379110574,0.1783510725468397
1768578441361392400,7.088392333984375,0.06892214505672455,-0.08571239020749927,0.14674363588392733
1768578441371366400,7.098366455078125,0.06477671581506729,-0.014901801055669784,0.1317395434975624
1768578441381339600,7.108339599609375,0.012656067955493927,0.03801555013954639,0.1249251873075962
1768578441391313700,7.118313720703125,-0.028816344639658927,0.026699060224741694,0.16345102505683898
1768578441401286700,7.12828662109375,-0.019984803408384322,-0.04664952297210693,0.21194120745956896
1768578441411260700,7.1382607421875,0.011146247914433478,-0.07482055544555187,0.20833879905343056
1768578441421233400,7.1482333984375,0.05189443788826465,-0.10395064220950007,0.2597872467398643
1768578441431206400,7.158206298828125,-0.0019558102428913113,-0.08647723710015416,0.33105157100856303
1768578441441180400,7.168180419921875,-0.017148703199625016,0.02672083366513252,0.24274492652416227
1768578441451153400,7.1781533203125,-0.18235797010064125,0.12211509832292794,0.2384960369080305
1768578441461127400,7.18812744140625,-0.3560872280657291,0.07563669413402677,0.29787878472506996
1768578441471100700,7.1981005859375,-0.31461598451435563,0.0033482875145971775,0.29806290912032124
1768578441481073700,7.20807373046875,-0.12879413769543172,-0.04557970178350806,0.3467933300197124
1768578441491047700,7.218047607421875,-0.10613982281684875,-0.15399419153407215,0.2545651281774044
1768578441501020400,7.2280205078125,-0.1331605162113905,-0.2539677468061447,0.335727161604166
1768578441510994400,7.237994384765625,-0.006164367848634719,-0.3083041710190475,0.32382629593014717
1768578441520967400,7.247967529296875,0.05848433767259121,-0.2870309352353215,0.2074830590069294
1768578441530940400,7.2579404296875,-0.06552724192142487,-0.1890147976413369,0.10597440312206745
1768578441540914400,7.26791455078125,-0.26949440176188943,-0.003431874144822359,0.06604512831568718
1768578441550887700,7.2778876953125,-0.2772609441101551,0.04888970311433077,-0.05265548538863658
1768578441560861700,7.28786181640625,-0.2574047355175018,0.16247487350106238,-0.09333528630137443
1768578441570834700,7.297834716796875,-0.2330021156668663,0.13701828761808574,-0.0791325734257698
1768578441580808700,7.30780859375,-0.1814671587407589,-0.008159414123371242,-0.0767839644730091
1768578441590781400,7.317781494140625,-0.09291676862835883,-0.05027735808044672,-0.015813070681691167
1768578441600754400,7.32775439453125,-0.17826280974149702,-0.059978010296449065,0.010799626433849335
1768578441610728400,7.337728515625,-0.23018822728991506,-0.016052943852171302,0.024264672684669492
1768578441620701400,7.347701416015625,-0.20259061079025267,-0.01465988205857575,-0.04009118736982345
1768578441630675500,7.357675537109375,-0.1619727691978216,-0.01059782025143504,-0.06252163036465644
1768578441640648700,7.367648681640625,-0.1467711084127426,-0.016631474392488597,-0.005589782831072807
1768578441650621400,7.377621337890625,-0.017799276062846182,-0.04333316496573388,-0.04609598074257373
1768578441660595500,7.387595458984375,0.064601943770051,0.026158596672490236,-0.1638987688243389
1768578441670568400,7.397568359375,-0.025673370438814163,0.06498787434771656,-0.13530980319976807
1768578441680542500,7.40754248046875,-0.13202479017972946,0.02894289362877607,-0.08746376391947269
1768578441690515500,7.417515380859375,-0.2037304284751415,0.04190459346733987,-0.06918401086330414
1768578441700488400,7.427488525390625,-0.23143442795872687,0.035582623904198404,-0.05162964947223663
1768578441710462500,7.43746240234375,-0.1609796665072441,-0.03981368560269475,-0.057926119267940515
1768578441720435700,7.447435791015625,-0.019025602987408637,-0.03475114151611924,0.007408230429887771
1768578441730409700,7.45740966796875,0.02532791800200939,0.04829546354822814,0.0530862780213356
1768578441740382500,7.467382568359375,-0.057681789118051524,0.15076054337508976,0.023119594302773473
1768578441750356500,7.4773564453125,-0.11784779626727103,0.14077515593357384,-0.04150689938664436
1768578441760329500,7.48732958984375,-0.19999358003437517,0.11545958595648408,0.0001502221256494522
1768578441770302500,7.497302490234375,-0.24998715273737906,0.11273878269046544,0.061926002559065815
1768578441780276500,7.5072763671875,-0.19484803383946417,0.0646235710799694,0.040270635589957235
1768578441790249500,7.51724951171875,-0.13725275396108627,0.08238638758994639,0.10416939952671528
1768578441800223500,7.527223388671875,-0.004639934760332107,0.05466251436211168,0.07936112148463725
1768578441810196700,7.53719677734375,0.09950082319378853,0.07483662979751825,0.06362754577994346
1768578441820169500,7.54716943359375,0.038361002576351166,0.04357756818085909,0.0766360804349184
1768578441830143500,7.5571435546875,-0.08611936357319354,-0.015623174132779239,0.009435352343320847
1768578441840116500,7.567116455078125,-0.1552536900758743,-0.0423057946793735,-0.02128945626616478
1768578441850090500,7.577090576171875,-0.2284790852844715,0.014520400522649288,-0.00537701686322689
1768578441860063500,7.5870634765625,-0.21490531796216963,0.02522321551851928,-0.025509704309701918
1768578441870036500,7.597036376953125,-0.1404664553105831,0.06408508028909564,-0.038008535876870156
1768578441880010500,7.607010498046875,-0.09737783969044685,0.008028481220081448,-0.0433393755108118
1768578441889983500,7.6169833984375,-0.10356032771766185,0.002228489704430103,-0.09816577519774436
1768578441899954400,7.626954345703125,-0.07952420309185981,0.02670022926852107,-0.12857786459624768
1768578441909927700,7.636927734375,0.01312602355480194,-0.006562061929330229,-0.08073708601295948
1768578441919900700,7.646900634765625,0.06691489688754082,-0.023588234727829692,0.0045043256819248196
1768578441929874700,7.656874755859375,0.18179215291142461,-0.05146927127875387,-0.03564297578930854
1768578441939847400,7.666847412109375,0.15853870309591292,-0.04224894992560148,-0.09785539407432078
1768578441949821400,7.676821533203125,0.08721768020391464,-0.05303644753023982,-0.042514615124464035
1768578441959794400,7.68679443359375,0.027141104903817177,-0.07722432865165174,-0.029423078361153602
1768578441969767700,7.696767578125,-0.012767127114534378,-0.04464147108532488,-0.025938158854842186
1768578441979741700,7.70674169921875,0.02493278120458126,0.04080788427181542,-0.0265910698056221
1768578441989714700,7.716714599609375,0.11356500438153742,0.0768318952679634,-0.02562719320952892
1768578441999688700,7.726688720703125,0.26310148585438725,0.030800431128963825,-0.0435223308622837
1768578442009661700,7.73666162109375,0.26105975089371203,-0.013107099658623337,-0.06048398705720901
1768578442019634400,7.746634521484375,0.10786533143520355,-0.047593306628242134,0.06012509061694145
1768578442029608400,7.7566083984375,0.2674000598311424,-0.17236607985310257,0.07544014864861964
1768578442039581400,7.76658154296875,0.26091595850884913,-0.1262078475292772,-0.09610708910226821
1768578442049555500,7.776555419921875,0.16812193947732448,-0.0019609248094260693,-0.09068564857542515
1768578442059528700,7.78652880859375,0.19889993957877158,-0.07806041414961218,-0.07391162390708923
1768578442069502700,7.796502685546875,0.2590256147176027,-0.07578786610774696,-0.084313190934062
1768578442079475700,7.806475830078125,0.22969722890257835,-0.024663462743908165,-0.1482657308846712
1768578442089448400,7.816448486328125,0.19357202255427836,-0.004758665769174695,-0.06901333047151566
1768578442099422500,7.82642236328125,0.21081600282192228,-0.05426218993291258,0.11982231121063232
1768578442109395500,7.8363955078125,0.2722504224717617,-0.20084135597012936,0.3073895403921604
1768578442119369500,7.846369384765625,0.32595161752104757,-0.3145945033349097,0.23460195207893847
1768578442129342500,7.856342529296875,0.23579671482145784,-0.21314283833429215,0.19196809448897836
1768578442139315700,7.866315673828125,0.19453706819415092,-0.1207039163507521,0.2281225269317627
1768578442149289700,7.876289794921875,0.15312953752875327,-0.07577120723389089,0.16804010641276834
1768578442159262700,7.8862626953125,0.015461773025989532,0.17432525109685956,0.073455112311244
1768578442169236700,7.89623681640625,-0.12648176909983158,0.346585240226984,-0.013508885392546653
1768578442179209500,7.90620947265625,-0.1670358978062868,0.37752595660947263,-0.0029179332733154295
1768578442189182500,7.916182373046875,0.060218029597401614,0.2792930344596505,0.0622621026456356
1768578442199156500,7.926156494140625,0.13413900585472582,0.20726320571117102,0.18295535147190092
1768578442209129500,7.93612939453125,-0.11906243275403976,0.045092795049399136,0.19047347201704978
1768578442219103500,7.946103515625,-0.02603869661986828,-0.08761683558933436,0.14253566280007363
1768578442229076700,7.95607666015625,0.20215163485109805,-0.10069668191485107,0.10825579205751418
1768578442239049700,7.9660498046875,0.1083206739872694,-0.10104644520059228,0.04998363583087921
1768578442249023700,7.976023681640625,0.046397009515762325,-0.12181202372312545,-0.007676525977253913
1768578442258996500,7.98599658203125,-0.014604279413819312,-0.03334134778343141,-0.060728317207098
1768578442268970500,7.995970458984375,-0.0923427681326866,0.004692687860876322,-0.09380465737879276
1768578442278943500,8.005943603515625,-0.25633915211260316,-0.04580773838572204,-0.05040624515712261
1768578442288916500,8.01591650390625,-0.24591361968815326,-0.12563282412029803,0.0019575638085603713
1768578442298890500,8.025890380859375,-0.1998842744410038,-0.0840977946177125,-0.08405074060559273
1768578442308863700,8.03586376953125,-0.15032441698014734,-0.02173983038216829,-0.1689139666378498
1768578442318837800,8.045837646484374,-0.022912673553824422,-0.04107113831788301,-0.08674129486382007
1768578442328810500,8.055810546875,0.11179039592444896,-0.11145035031512379,-0.0074848027974367135
1768578442338783500,8.065783447265625,0.2321089662194252,-0.09390307625196874,-0.03637070554196834
1768578442348757500,8.075757568359375,0.2855693382501602,0.00632065438888967,-0.08327098840475082
1768578442358730500,8.08573046875,0.17033727743923663,0.11339812338203191,-0.13511457288861273
1768578442368704500,8.09570458984375,-0.0105178868830204,0.11605207195691764,-0.12192834357917308
1768578442378677500,8.105677490234376,-0.19358312847018241,0.09243541485220193,-0.16150456716418266
1768578442388650800,8.115650634765625,-0.2812169882595539,0.1382845812268555,-0.19643150363862513
1768578442398624800,8.125624755859375,0.010214520022273063,0.09683445352874696,-0.15237725785672665
1768578442408597500,8.135597412109375,0.4435387170255184,-0.016197832215577364,-0.0429606053262949
1768578442418571500,8.145571533203125,0.8085410729527474,-0.18541348521374165,0.12788228354752063
1768578442428544500,8.15554443359375,0.8920587295949458,-0.09551642973273992,0.06677285806834697
1768578442438517500,8.165517578125,0.7786334259450435,0.1858081105545163,-0.022910335466265676
1768578442448491500,8.175491455078125,0.6853975083649158,0.06270604702085256,0.10138123011291027
1768578442458464500,8.185464599609375,0.4885568394035101,-0.09231076555922627,-0.035465281134843825
1768578442468438500,8.1954384765625,-0.07744155159890652,0.0560310262363404,-0.122282856105268
1768578442478411800,8.205411865234375,-0.3747176942557096,0.008713613940030335,-0.04882335987985134
1768578442488384500,8.215384521484374,-0.5188333197236061,-0.015687471540644763,-0.07231032619029283
1768578442498358500,8.225358642578126,-0.47434477417767046,0.03004157558567822,-0.08540127843171358
1768578442508331500,8.23533154296875,-0.5330179124206305,0.028694910217076538,-0.20494857209324835
1768578442518305500,8.245305419921875,-0.6385831502199173,0.01228540801219642,-0.30572043813616034
1768578442528278500,8.255278564453125,-0.37009295706450934,0.13356573601141572,-0.2911389550760388
1768578442538251500,8.26525146484375,0.11709142494201659,0.000026668811216950415,-0.03409077791124582
1768578442548225500,8.2752255859375,0.20417408058941364,-0.12495806666389107,0.08463730832189321
1768578442558198500,8.285198486328126,-0.05059446120560169,0.033761984348297115,0.10636603278815746
1768578442568172500,8.295172607421875,0.022902736681699752,-0.015807444658502937,0.11219663863778113
1768578442578145500,8.3051455078125,-0.10093757799863814,-0.11374269903600215,0.0014653963774442671
1768578442588118500,8.315118408203125,-0.36715339648127554,-0.005411065263301134,-0.08241437157541513
1768578442598092500,8.325092529296874,-0.4533142611086368,0.04900098146907985,-0.10229922174066304
1768578442608065500,8.3350654296875,-0.3694692722082138,0.021415274602919816,-0.12067045247256755
1768578442618039600,8.34503955078125,-0.18024550799131392,0.09112060592658817,-0.12148849085718393
1768578442628012500,8.355012451171875,0.2664116333156824,0.018176000420749187,-0.06355769541412591
1768578442637985500,8.364985595703125,0.05803191772997379,0.07013203230313957,-0.1413508369296789
1768578442647959600,8.37495947265625,-0.21811025148332117,0.368509341134876,-0.1496542626336217
1768578442657932500,8.3849326171875,-0.3461883498638868,0.29027576237544417,-0.22775836979448794
1768578442667906600,8.394906494140624,-0.3183370508641004,0.20110336790718136,-0.22750819442570208
1768578442677879600,8.404879638671876,-0.2378466330885887,0.1800366875462234,-0.08494666653200983
1768578442687852500,8.4148525390625,-0.19026538222432135,0.09432700075246393,0.05392258271500468
1768578442697826600,8.42482666015625,-0.20997721391022203,0.05903057337850332,0.21160013893693685
1768578442707799600,8.434799560546875,-0.1690752946794033,-0.09338891618475317,0.23545856890827416
1768578442717773600,8.444773681640624,-0.0517138206243515,-0.1669285649742931,0.17663257819116115
1768578442727746600,8.45474658203125,-0.002709258958697319,-0.029741715856269,0.12863251739293335
1768578442737719600,8.464719482421875,0.07871113314330577,0.06570267155356704,0.07726619503200054
1768578442747693600,8.474693603515625,0.03762567403912544,0.08596673029474913,0.09885317294001579
1768578442757666600,8.48466650390625,0.08024433405995368,0.03741875329017639,0.011858049445599317
1768578442767640600,8.494640625,0.04120820870101451,0.07905278618782759,-0.10639861988350749
1768578442777613600,8.504613525390624,-0.03583119183778763,0.056665451682358974,-0.11011354875341058
1768578442787586600,8.514586669921876,-0.04202186317145824,-0.0947845352616161,-0.08151888404041528
1768578442797560600,8.524560546875,0.21544600071012973,-0.15428784071840346,-0.0005255582440644503
1768578442807533600,8.534533447265625,0.09021920010745525,-0.2546989106249064,0.06122296885624528
1768578442817507600,8.544507568359375,0.0068085109710693354,-0.1965231274448335,0.15858831439130008
1768578442827480600,8.55448046875,0.18090660224854946,-0.19737156096771358,0.2059939894929528
1768578442837454600,8.56445458984375,0.1582037720531225,-0.16398739695586262,0.2151110696673393
1768578442847427600,8.574427490234376,-0.06979951241314411,-0.04668671317733824,0.16469631241019814
1768578442857400600,8.584400634765625,-0.26864333789050576,-0.02901647032164037,0.07706731145903467
1768578442867374600,8.59437451171875,-0.35014673210084435,0.023342224077507853,0.005159245926700532
1768578442877347600,8.60434765625,-0.34144729281663894,0.08406506139189004,-0.04992019693953916
1768578442887320600,8.614320556640624,-0.22534897056519984,0.11213665207885205,-0.03304578520322684
1768578442897294600,8.624294677734374,-0.06931845089793205,0.12424663045890628,0.05156168966940604
1768578442907266800,8.634266845703126,0.1155097087085247,0.04338014591261744,0.07239181219497695
1768578442917240800,8.64424072265625,0.19649580104649067,0.08630114988088607,0.029704598716273903
1768578442927213600,8.654213623046875,0.05547697255015373,0.1561406289782375,0.019331271403096616
1768578442937186800,8.664186767578125,-0.009629413610696792,0.1344864310529083,-0.10169424158483743
1768578442947160800,8.674160888671874,-0.17021628140807152,0.05248911584578454,-0.1577001333799213
1768578442957133800,8.6841337890625,-0.25969430775940416,-0.0030859102513641117,-0.1961442841950804
1768578442967107800,8.69410791015625,-0.2111860051780939,0.068543849796243,-0.1922762105900794
1768578442977080800,8.704080810546875,-0.2475193013191223,0.0680253423474729,-0.17343137099705636
1768578442987054800,8.714054931640625,-0.07376958508789538,-0.019708361087180673,-0.06896876067742705
1768578442997027800,8.72402783203125,0.09350421312749385,-0.07641231814902276,-0.02222089189738035
1768578443007000600,8.73400048828125,0.011317512828111649,-0.056442310450971124,-0.06832008751034736
1768578443016974600,8.743974609375,-0.012534487402439117,-0.0205186545567587,-0.020706541811674833
1768578443026947800,8.75394775390625,0.08755085768103599,-0.06431403020676225,-0.027730595229566096
1768578443036920800,8.7639208984375,-0.02135433819591999,0.014918423396907746,-0.038643618910014624
1768578443046894800,8.773894775390625,-0.05053893162608147,0.07031403780654072,-0.040140871730446816
1768578443056867800,8.783867919921875,-0.1886076781451702,-0.031093349660933016,-0.20252412142530082
1768578443066841900,8.793841796875,-0.12446283049285412,0.005718085385859013,-0.2806675376832485
1768578443076814800,8.80381494140625,-0.0005447744011878967,-0.09372691596746444,-0.24107933139950036
1768578443086787600,8.81378759765625,-0.10676818384826182,-0.13549933442249892,-0.22015695488005876
1768578443096761600,8.82376171875,-0.08563245683908462,-0.07554609324112534,-0.26484716047793627
1768578443106734800,8.83373486328125,-0.1483130771577358,-0.08028663883171976,-0.26248364621698855
1768578443116708900,8.843708984375,-0.26688743413388727,-0.11584069422855972,-0.2013432410776615
1768578443126681900,8.853681884765624,-0.30879414649307724,-0.13598894457034766,-0.18468319817781448
1768578443136654800,8.86365478515625,-0.30144553729593754,-0.15224968595430255,-0.12234130829423666
1768578443146628900,8.87362890625,-0.16325228761434554,-0.09478818852342664,-0.04071604126989841
1768578443156601600,8.8836015625,-0.027545009529590606,-0.05366985006295144,-0.09287000687718391
1768578443166575600,8.89357568359375,0.10669628765583038,-0.07172697334438562,-0.21871201676875351
1768578443176548600,8.903548583984374,0.18640753775238988,-0.07770495177544653,-0.3036313569024205
1768578443186521900,8.91352197265625,0.0608592501103878,-0.018992358304932712,-0.39117461579889057
1768578443196496000,8.923495849609376,-0.020105214917659757,0.03405665644593537,-0.4203942805424332
1768578443206468900,8.93346875,-0.09413666581213474,0.0540456245727837,-0.40731121934652326
1768578443216443000,8.94344287109375,0.06083762280046939,0.08856646446436643,-0.3568479833051562
1768578443226415900,8.953415771484375,0.27391572533547875,0.13333828393109143,-0.2528355279058218
1768578443236388600,8.963388671875,0.19388649533092975,0.06373261358961463,-0.12337386621236801
1768578443246362600,8.973362548828124,0.12471475942730903,0.05491853494979441,-0.028602409628033638
1768578443256335600,8.983335693359376,-0.00732289023399353,-0.018369184905290603,0.029629122327268123
1768578443266309600,8.9933095703125,-0.06798223385810852,-0.19481676191836594,-0.0382788772508502
1768578443276283000,9.003282958984375,0.03692074064016342,-0.2978983662083745,-0.1283905253306031
1768578443286255900,9.013255859375,0.11750994261503218,-0.3396872974067926,-0.16096972963511944
1768578443296230000,9.02322998046875,0.1946118869960308,-0.36469416676089167,-0.2089364726856351
1768578443306203000,9.033202880859376,0.18906302069723604,-0.29584925165884196,-0.24838117884546518
1768578443316177000,9.043177001953126,0.07343582308888436,-0.2685038563545793,-0.3081955960780382
1768578443326149600,9.053149658203125,-0.09446984328925609,-0.23217662462815641,-0.3893082374051213
1768578443336122600,9.06312255859375,-0.19850012660622596,-0.15934066712856293,-0.36721973971575494
1768578443346096600,9.0730966796875,-0.1507797595322132,-0.14060432941131293,-0.27369477606117726
1768578443356070000,9.08306982421875,0.08555354638397693,-0.12553557429090142,-0.26856910361051556
1768578443366044000,9.0930439453125,0.3494523200958967,-0.10840696403123437,-0.2476239307373762
1768578443376017000,9.103016845703126,0.4792939210176468,-0.09486863334849477,-0.22623335218429563
1768578443385989600,9.11298974609375,0.41017771469354625,-0.04256280164774507,-0.2250584631860256
1768578443395963600,9.122963623046875,0.3206909205138683,-0.054839478364214295,-0.22971067290604114
1768578443405936600,9.1329365234375,0.13689035038948058,-0.0862264041442424,-0.3318903599202633
1768578443415910000,9.142909912109374,0.08277356027662754,-0.08706117446795106,-0.43599955369234084
1768578443425883600,9.152883544921876,0.15263210940063,-0.0339482276353985,-0.4943985511690378
1768578443435857000,9.16285693359375,0.2630424491435289,-0.04954502521790564,-0.4438526052802801
1768578443445831000,9.172830810546875,0.6209528009831905,-0.044034920026920735,-0.3340203576862812
1768578443455804000,9.182803955078125,0.8746195190161467,-0.049955213453993196,-0.1861374886393547
1768578443465776600,9.192776611328124,0.9239631033778191,-0.0643751492768526,-0.12681903823018073
1768578443475750700,9.202750732421874,0.6749988639473915,-0.10466540288273245,-0.1011532665759325
1768578443485723600,9.2127236328125,0.296675838676095,-0.22390249808393417,-0.19254326402842997
1768578443495697700,9.22269775390625,-0.11492051064372062,-0.014375366028770804,-0.2322609419107437
1768578443505671000,9.2326708984375,-0.5914455514699221,0.25727564751142634,-0.040760464933514595
1768578443515644000,9.242643798828125,-0.9757985045552253,0.14805046243248507,0.19011808270812033
1768578443525618000,9.252617919921875,-1.0127157380640506,0.11494681412875651,0.17303367691636085
1768578443535591000,9.2625908203125,-0.9919733942866324,0.253876689255517,0.13883037854135036
1768578443545565000,9.27256494140625,-1.057612864410877,0.16176347382869571,0.1720855824112892
1768578443555537700,9.28253759765625,-1.092111930862069,0.06601513503622264,0.07358662973642349
1768578443565510700,9.2925107421875,-1.0219161126077174,-0.15368664168855176,-0.1427723941653967
1768578443575484700,9.302484619140625,-0.7835176908552646,-0.3084878570228815,-0.27631811030209064
1768578443585458000,9.3124580078125,-0.4060504056304693,-0.2928497410492971,-0.3115571814656257
1768578443595431000,9.322430908203126,0.0019786065965890884,-0.31728874738756563,-0.2904226235002279
1768578443605405000,9.332405029296876,0.1800163754105568,-0.3408523591307923,-0.19844868867993354
1768578443615377700,9.342377685546875,0.1719552340298891,-0.35071448551882056,-0.11808394311070441
1768578443625351700,9.3523515625,0.001180149695277214,-0.34056645486149933,-0.1166775834441185
1768578443635324700,9.36232470703125,-0.16427403187751768,-0.3610086101159453,-0.13016776413619519
1768578443645297700,9.372297607421874,-0.15072422995269297,-0.40202926035560665,-0.15533493861854075
1768578443655271700,9.382271728515626,-0.09816226806640624,-0.26643505072388796,-0.12840367707312106
1768578443665245000,9.392244873046875,0.10185703093111514,-0.17935548208272084,-0.04676116665303707
1768578443675219000,9.402218994140625,0.3588730593919754,-0.1629654152306728,-0.04401449829339981
1768578443685192000,9.41219189453125,0.43543607459068295,-0.21339999143313615,-0.13194237259328365
1768578443695164700,9.42216455078125,0.3726888187766075,-0.1947752243315801,-0.22758827392458914
1768578443705138700,9.432138671875,0.1314998895227909,-0.174016952332668,-0.30330431690514087
1768578443715111700,9.442111572265626,-0.153738024815917,-0.17565383281949906,-0.3272895881265402
1768578443725084700,9.452084716796875,-0.26994097648561,-0.09852860802761279,-0.2469008771598339
1768578443735058700,9.46205859375,-0.354517202270031,-0.013683958831662311,-0.17887246607244014
1768578443745032000,9.472031982421875,-0.4828028059214353,0.024196630683448163,-0.10665887825489044
1768578443755006000,9.482005859375,-0.579490909782052,-0.030584541622269895,-0.0071329206198453895
1768578443764979000,9.49197900390625,-0.5381155278205871,-0.020403631608653813,0.02171206559240818
1768578443774951700,9.50195166015625,-0.3869108208745718,-0.01786452331878245,0.05170739088356495
1768578443784925700,9.51192578125,-0.2114870339512825,-0.025192126260511576,0.05082300926446914
1768578443794898700,9.521898681640625,-0.0730021078467369,-0.05860789098702371,0.053283846420049664
1768578443804872700,9.531872802734375,-0.10732347964346409,-0.07215568361785263,-0.039572131931781766
1768578443814845700,9.541845703125,-0.30917817737460135,-0.1480601801089011,-0.20897008269429207
1768578443824819000,9.55181884765625,-0.3146539784371853,-0.17327035348275677,-0.3162912242501974
1768578443834793000,9.56179296875,-0.3216635649383068,-0.14446454850342125,-0.34787528003752227
1768578443844765700,9.571765625,-0.2740484118044376,-0.13372227827999741,-0.31398762348294257
1768578443854738700,9.58173876953125,-0.2171411141902208,0.029282829640246925,-0.252812731552124
1768578443864712700,9.591712646484375,-0.19627660533785818,0.12393332672603427,-0.20658172625303267
1768578443874685700,9.601685791015624,-0.08096972572505473,0.17578728647343814,-0.12570377046465872
1768578443884659700,9.61165966796875,-0.013750292932987213,0.16121959447665138,0.02019581581056118
1768578443894632700,9.6216328125,0.044809448063373565,0.05476416637198999,-0.006399930170178413
1768578443904605400,9.63160546875,0.04243862727880478,-0.0443259936616756,-0.14224340185523032
1768578443914579500,9.641579345703125,0.014174071303009987,-0.03505308360476046,-0.21008125880658626
1768578443924552200,9.65155224609375,-0.1097755489706993,-0.007015431720018387,-0.18009060969054697
1768578443934525200,9.661525146484376,-0.20616145501434802,-0.010135225974675267,-0.1251777007639408
1768578443944499200,9.671499267578126,-0.1962017865359783,-0.06530225579282269,-0.1344984868168831
1768578443954472200,9.68147216796875,-0.2403127309411764,-0.15917199603077023,-0.1549327875584364
1768578443964446200,9.6914462890625,-0.24560382308661935,-0.20474756962843238,-0.17221943792402744
1768578443974419500,9.70141943359375,-0.17379589346051216,-0.15896639045607297,-0.1456646084755659
1768578443984392200,9.71139208984375,-0.012565467062592506,-0.14427613152554258,-0.11210311513543128
1768578443994366200,9.7213662109375,0.1280535484611988,-0.14594313315600155,-0.196603353074193
1768578444004339200,9.731339111328126,0.059548752033710475,-0.15907620750609786,-0.2974772181868553
1768578444014312200,9.741312255859375,0.018440496575832365,-0.16035875812992453,-0.37566578876078127
1768578444024286200,9.7512861328125,-0.030056115567684172,-0.06732720401547848,-0.3819990834355354
1768578444034259200,9.76125927734375,-0.12481062101721763,0.04441100506400689,-0.24339433034360408
1768578444044233200,9.771233154296874,-0.18367782052755355,0.14801234064549207,-0.09561842880249023
1768578444054206500,9.78120654296875,-0.25451778190433977,0.17574993187142535,-0.042458501023054124
1768578444064179200,9.79117919921875,-0.26678806541264055,0.07180296119004488,-0.037038229539990426
1768578444074153200,9.8011533203125,-0.13056231641173363,-0.11346444835020228,-0.01354687931537628
1768578444084126200,9.811126220703125,-0.008925649255514144,-0.3059928618693724,-0.036144495570659636
1768578444094100200,9.821100341796875,0.17851356963217258,-0.5343137609174474,-0.04207271657586097
1768578444104073200,9.8310732421875,0.409562797665596,-0.6472014870919287,-0.08387889117002487
1768578444114046200,9.841046142578126,0.46570904777944083,-0.6514988920249044,-0.16694295882582663
1768578444124020200,9.851020263671876,0.3047451633632183,-0.5755612421829253,-0.3291109583348036
1768578444133993500,9.860993408203125,0.14258184002935886,-0.4533766588203609,-0.38415830729603767
1768578444143966200,9.87096630859375,-0.13888006290197372,-0.3178785299742594,-0.35479660373330113
1768578444153940200,9.880940185546875,-0.48739422536492344,-0.10766931567275896,-0.3158399733513593
1768578444163913200,9.890913330078124,-0.6557721854299307,0.03134979494030121,-0.19161036709249019
1768578444173886200,9.90088623046875,-0.8040653888434172,0.15731628516148774,0.06091361064612865
1768578444183860200,9.910860107421875,-0.9036363546639681,0.23706443320233372,0.20044775354266164
1768578444193833500,9.92083349609375,-0.8215262267321348,0.22284617569772525,0.2811649658113718
1768578444203807200,9.93080712890625,-0.6707447136342525,0.14404221317181362,0.345000016862154
1768578444213780200,9.9407802734375,-0.5025380184829235,0.12420898359594866,0.3011059300780296
1768578444223753200,9.950753173828126,-0.32460429456532,0.07421861663018353,0.2575678171247244
1768578444233727200,9.960727294921876,-0.13132394843399525,0.04569248710875399,0.19723171410560605
1768578444243700200,9.9707001953125,-0.09356091175079345,0.09845478473957628,0.09970014515817165
1768578444253674200,9.98067431640625,-0.0858598358541727,0.08034854335309938,0.14120119932591915
1768578444263647200,9.990647216796875,-0.02953939821720123,0.11558260954795405,0.22894670279622076
1768578444273620500,10.000620361328124,-0.1179582709044218,0.20500010135108604,0.20865619443953037
1768578444283594500,10.010594482421874,-0.12417699928879737,0.18503617633394895,0.12822656694054602
1768578444293567200,10.020567138671876,-0.07578793917298317,0.0830116433488205,0.08798048126995563
1768578444303540200,10.030540283203125,-0.1080196452140808,0.08755096727889031,0.06801204447448253
1768578444313514200,10.04051416015625,-0.07870061174929141,0.022369908446632326,0.07610124290585517
1768578444323487200,10.0504873046875,0.015347206735610961,0.03771609226893633,0.06880114902555942
1768578444333460200,10.060460205078124,0.07381167066395282,0.04443254104238003,0.08831307422518729
1768578444343434200,10.070434326171876,0.13068331244289874,0.12790212075915186,0.1672626922994852
1768578444353407500,10.080407470703125,0.09647241528332233,0.2972104570094496,0.2946902178168297
1768578444363381500,10.090381591796875,-0.01669920586645603,0.3503055028591305,0.4495306509166956
1768578444373354200,10.100354248046875,-0.17539339178502558,0.3375719126880169,0.4670885194391012
1768578444383327200,10.1103271484375,-0.1838455783098936,0.2850203991305083,0.0962426981806755
1768578444393301200,10.12030126953125,0.06340893459320068,0.2095482479084283,-0.21435645190775393
1768578444403274200,10.130274169921876,0.145002345174551,-0.08351699905507266,-0.3816653214365244
1768578444413247200,10.140247314453125,0.213351074257493,-0.21157953454032538,-0.3367348773419857
1768578444423221200,10.15022119140625,0.5509270785987377,-0.09306341055743396,-0.28390169729888437
1768578444433194200,10.1601943359375,0.49410921283364295,-0.007362783852964639,-0.17606325387060642
1768578444443168300,10.170168212890625,0.11629589065015315,0.1721234302036464,0.014125555986166
1768578444453141200,10.180141357421874,-0.23513328247666357,0.477193441607058,0.1506102481842041
1768578444463114200,10.1901142578125,-0.5013040927737951,0.5830268288232385,0.2794920641630888
1768578444473088300,10.200088134765625,-0.7230968321621417,0.4846496028319001,0.244888368293643
1768578444483061200,10.210061279296875,-0.6929448550045489,0.3338582989923656,0.14011691122055053
1768578444493034200,10.2200341796875,-0.5379489390820265,-0.0003058510787785053,0.011347323444485663
1768578444503008300,10.23000830078125,-0.32744156381785866,-0.19781901247426867,-0.14364859247803688
1768578444512981200,10.239981201171876,-0.06172083537578582,-0.2747640127278864,-0.16090835483670235
1768578444522955300,10.249955322265626,0.07973053931891917,-0.34665056054815646,-0.16285247464179992
1768578444532928300,10.25992822265625,0.049721770024299616,-0.26931583032459017,-0.12221885095834731
1768578444542901200,10.2699013671875,0.04978431386649608,-0.104154055827111,-0.05882569845616817
1768578444552875300,10.279875244140625,0.021838322320580483,0.08593129365518688,0.0421498734652996
1768578444562848300,10.28984814453125,-0.16667174066901205,0.22909107970297335,0.17738953403830526
1768578444572821500,10.299821533203126,-0.2719932328402996,0.3386709599711001,0.24514088174998758
1768578444582795300,10.309795166015626,-0.3701479021221399,0.3814407189004123,0.23577333394587038
1768578444592768300,10.319768310546875,-0.5128653512299061,0.36656799780875443,0.06847381676733494
1768578444602741200,10.3297412109375,-0.4310030605792999,0.29204657144024965,-0.05002572140693664
1768578444612715300,10.33971533203125,-0.23509645759761333,0.05130465530157089,-0.10515022725760936
1768578444622688300,10.349688232421874,-0.03947627034187317,-0.05016688344329595,-0.19737316840291022
1768578444632662300,10.359662353515626,0.1355780987471342,-0.10938830321878194,-0.2174900737583637
1768578444642635300,10.36963525390625,0.21855974881649015,-0.06602525457143783,-0.2989367693454027
1768578444652608300,10.379608154296875,0.06864215907156467,0.014028525352478026,-0.2660965760171413
1768578444662582300,10.389582275390625,0.0697732089281082,0.1189797229066491,-0.11989186931550502
1768578444672555300,10.39955517578125,-0.011296470040082931,0.25228783089518547,0.020949849048256874
1768578444682528300,10.4095283203125,-0.18173136263489723,0.2855480032011866,0.042457916501164435
1768578444692502300,10.419502197265626,-0.18567396278083323,0.2756523398697376,0.0017500585377216338
1768578444702475300,10.429475341796875,-0.06866437090337275,0.14527677820175885,-0.013783610680699348
1768578444712449300,10.43944921875,0.09445289215445518,-0.025269758073985574,-0.07392974408566952
1768578444722422300,10.44942236328125,0.1486012464493513,-0.08013795107603072,-0.21125731684863566
1768578444732395300,10.459395263671874,0.20731763931214808,-0.10261252547353505,-0.2995744827270508
1768578444742369300,10.469369384765624,0.16522504899203777,-0.19417671044915913,-0.2795440866112709
1768578444752342300,10.47934228515625,0.14856559061408042,-0.20559037712812422,-0.21890929290652275
1768578444762315300,10.489315185546875,0.09297229820787906,-0.03825549637526274,-0.173527597913146
1768578444772289300,10.499289306640625,0.013746201279759406,0.057554071085155006,-0.1499731193244457
1768578444782262300,10.50926220703125,-0.013453355813026428,0.1329538877233863,-0.09250058904290198
1768578444792235300,10.5192353515625,-0.22666122220754623,0.16819588149636983,-0.022630349481105802
1768578444802209300,10.529209228515626,-0.32174189087152477,0.18059271399378776,0.025740005934238433
1768578444812182300,10.539182373046875,-0.26153730527758595,0.3034624300763011,0.0171492877215147
1768578444822156300,10.54915625,-0.21845570392012595,0.29072745166569947,-0.06144435652196407
1768578444832129300,10.55912939453125,-0.010999532920122146,0.19907997232079505,-0.1951297733902931
1768578444842102300,10.569102294921874,0.23348902240097522,0.04671294359713792,-0.26595512171983715
1768578444852076300,10.579076171875,0.28027707706093785,-0.10007599273324012,-0.2622211958885193
1768578444862049300,10.58904931640625,0.3238777338564396,-0.11550766288191079,-0.23986089552044867
1768578444872022300,10.599022216796875,0.3107838590055704,-0.0921732567846775,-0.18507132071256638
1768578444881996300,10.608996337890625,0.1846644934773445,-0.04225391836166382,-0.1535942324310541
1768578444891969300,10.61896923828125,0.007097849306464195,0.07181348258405923,-0.08907470624744891
1768578444901943300,10.628943359375,-0.05876432365775108,0.16638620172590016,0.01914192284345627
1768578444911917000,10.6389169921875,-0.23456921885311602,0.2042597130462527,0.024971359649300574
1768578444921889800,10.648889892578126,-0.5376771364033222,0.15345833109170198,0.013400748842954635
1768578444931863800,10.65886376953125,-0.501681109392643,0.13612638027966023,-0.04957213242053985
1768578444941836800,10.6688369140625,-0.48297640892267224,0.09279986425042151,-0.08930325430631637
1768578444951809800,10.678809814453125,-0.30303076066076756,-0.10949380941987037,-0.1549322030365467
1768578444961783800,10.68878369140625,0.11611527338624,-0.16179595132619143,-0.2528524790406227
1768578444971757000,10.698757080078124,0.2525134563446045,-0.2777762001559138,-0.2591699916243553
1768578444981730000,10.70872998046875,0.22442717954516408,-0.3101327016204595,-0.22043547956049442
1768578444991704000,10.7187041015625,0.15598551148176193,-0.1311886316165328,-0.11374328355789184
1768578445001676800,10.7286767578125,0.11351532002091407,-0.09382628468871117,-0.06059387717247009
1768578445011649800,10.73864990234375,0.10699322477579117,-0.03728022160232067,-0.16393208657205105
1768578445021623800,10.748623779296874,-0.13080021682083606,0.0413438177794218,-0.12918518283963204
1768578445031596800,10.7585966796875,-0.3166957133978605,0.03823065419495106,-0.08020692465901375
1768578445041570800,10.76857080078125,-0.22299568543732165,0.05017039057463407,-0.03647475043833256
1768578445051544000,10.7785439453125,-0.16420856542587278,0.06509323441833258,-0.016433248406648636
1768578445061517000,10.78851708984375,-0.23454233084619044,0.07921323744654656,0.030436054795980452
1768578445071491000,10.798490966796875,-0.3145516871064901,0.030518180121481418,0.05183481665551662
1768578445081463800,10.8084638671875,-0.3281266234725714,0.00038929157853126526,-0.010675707793235779
1768578445091436800,10.818436767578126,-0.27170740163624285,-0.030219197174906728,-0.010810732349753379
1768578445101410800,10.828410888671876,-0.1814133827269077,-0.07731266452223062,-0.0026700959920883177
1768578445111383800,10.8383837890625,-0.02276069786250591,-0.13807576078176498,-0.04952244805991649
1768578445121357000,10.848357177734375,0.10180325491726398,-0.12473287960588932,-0.09265607186555862
1768578445131331000,10.8583310546875,0.08104337548315524,-0.0825964501440525,-0.11991057401597499
1768578445141304000,10.868303955078124,-0.05758768109381199,-0.06550093843638896,-0.14484744687378406
1768578445151278000,10.878278076171876,-0.07953881613910198,-0.04322071756720543,-0.13406477157473565
1768578445161250800,10.888250732421875,0.006166705936193466,-0.03015899142026901,-0.11554536454379558
1768578445171223800,10.898223876953125,-0.13558978918492792,-0.06464753647744655,-0.1318219610840082
1768578445181197800,10.90819775390625,-0.2719575770050287,-0.14677695363163948,-0.11582944218218326
1768578445191170800,10.9181708984375,-0.11301964545845984,-0.0986561890631914,-0.09228899211883544
1768578445201144000,10.92814404296875,0.08128887467682361,-0.05178454777300358,-0.1046434467792511
1768578445211118000,10.9381181640625,0.1632102020382881,-0.046676410979032516,-0.1482230607867241
1768578445221090800,10.9480908203125,0.23405016341507434,-0.1468891818344593,-0.17800503558814523
1768578445231063800,10.958063720703125,0.383805256074667,-0.25626491783261296,-0.2142623438835144
1768578445241037800,10.968037841796875,0.4821206688761711,-0.1921674164533615,-0.20706629489958286
1768578445251010800,10.9780107421875,0.3456301314592361,-0.111723175907135,-0.15747954943180084
1768578445260984800,10.98798486328125,0.19774375528097152,-0.11062076762318611,-0.14030103561580182
1768578445270957800,10.997957763671875,0.06575345189273357,-0.04057341792881489,-0.1607663160175085
1768578445280931000,11.00793115234375,-0.11452303575873374,-0.0009942717343568801,-0.11785656409561633
1768578445290905000,11.017905029296875,-0.17152444139719009,-0.01438917535841465,-0.05526596014797687
1768578445300877800,11.0278779296875,-0.20560206756591795,-0.037214170628786084,-0.0378103829562664
1768578445310850800,11.037850830078124,-0.2989215717762708,-0.10894845049679279,-0.02363572713136673
1768578445320824800,11.047824951171876,-0.18259587050974369,-0.1341618022084236,-0.06152502054274082
1768578445330797800,11.0577978515625,0.0074514850497245785,-0.1099409686654806,-0.10304711749851703
1768578445340771000,11.06777099609375,-0.0329132585644722,-0.10451543648540973,-0.1309194592863321
1768578445350745000,11.0777451171875,-0.07526011590659618,-0.16947919930517671,-0.1375730719566345
1768578445360718000,11.087718017578124,-0.1413940915495157,-0.2268757417410612,-0.1977320648431778
1768578445370690800,11.09769091796875,-0.1332861884176731,-0.21697978614866734,-0.2220353159725666
1768578445380664800,11.107664794921876,0.03339958077669143,-0.2063976018577814,-0.17490999218225478
1768578445390637800,11.117637939453125,0.1532896965265274,-0.17078560572862625,-0.11544541130065918
1768578445400611800,11.12761181640625,0.08499649702310562,-0.1157668983399868,-0.06260404795110225
1768578445410584800,11.137584716796875,0.010660510224103926,-0.05623743552863598,0.027250410497188567
1768578445420558000,11.14755810546875,-0.04022036670744419,-0.039704233878850935,0.07913432699143887
1768578445430532000,11.157531982421874,0.008674304842948913,-0.02473112115263939,0.04363339002132415
1768578445440504800,11.1675048828125,0.07950608291327953,0.008505962538719177,-0.03477612982690334
1768578445450477800,11.177477783203125,0.03493102812767029,0.009749825119972228,-0.06849427503347397
1768578445460451800,11.187451904296875,-0.015549451309442519,-0.04233341333866119,-0.07557868033647537
1768578445470424800,11.1974248046875,-0.027727964881062505,-0.06626490854620933,-0.10861527301967143
1768578445480397800,11.207397705078124,-0.07719254527390003,-0.09118249218165873,-0.13843757983148097
1768578445490371800,11.217371826171876,-0.019008651852607725,-0.16152970160543917,-0.0962514660090208
1768578445500345000,11.227344970703125,0.09806114577949046,-0.12226152105629444,-0.10269698888659477
1768578445510319000,11.237319091796875,0.1368295601129532,-0.1039542954713106,-0.09540975448787212
1768578445520291800,11.247291748046875,0.11403437545895576,-0.13804945729672907,-0.023808745610713958
1768578445530264800,11.257264892578124,0.12042144614756106,-0.010552958196401596,-0.030400983482599255
1768578445540238800,11.26723876953125,0.17265198412239552,0.05886252333521843,-0.03451134141087532
1768578445550211800,11.2772119140625,0.11668693579435348,0.06859656636416912,-0.09351473452150821
1768578445560184800,11.287184814453125,-0.05635609347224235,0.10607961706221103,-0.1647445719987154
1768578445570158800,11.297158935546875,-0.06884323460161686,0.040111061114072796,-0.2094645882129669
1768578445580132000,11.307132080078125,0.22130933978557585,0.08555120829641819,-0.13699381076395512
1768578445590104800,11.317104736328124,0.46718204294145105,0.1062508819758892,0.010151391658186912
1768578445600078800,11.327078857421874,0.4792296236097812,0.035083003818988795,0.0744271722137928
1768578445610051800,11.3370517578125,0.4300485363334417,-0.028034254351258277,0.01880757632255554
1768578445620024800,11.34702490234375,0.1867424687951803,-0.050292263388633726,-0.06519114183485508
1768578445629998800,11.356998779296875,-0.15751462074518202,-0.05982873801887035,-0.08921206889152526
1768578445639972000,11.36697216796875,-0.194206813326478,-0.10393559077084064,-0.10776420914828777
1768578445649944800,11.37694482421875,-0.07305588386058808,-0.0867272663384676,-0.13390344353318215
1768578445659918800,11.3869189453125,-0.10885025081932544,-0.071342065680027,-0.1352797003224492
1768578445669891800,11.396891845703125,-0.12866905001103876,-0.11277531530857085,-0.0423611781284213
1768578445679865900,11.406865966796875,-0.11645371156036853,-0.17584347364008426,0.0040481063470244405
1768578445689838800,11.4168388671875,-0.10238076254427432,-0.204693720549345,-0.04822101007252931
1768578445699811800,11.426811767578124,-0.13517477864325045,-0.26677169879972934,-0.04182955546975135
1768578445709785900,11.436785888671874,-0.12494623009562492,-0.2165671136945486,-0.03562134847939014
1768578445719759000,11.446759033203126,-0.17967267653942107,-0.14380816695392132,-0.03648322600573301
1768578445729731800,11.45673193359375,-0.18391221380531786,-0.15226619869768618,-0.023560616068542
1768578445739705900,11.466705810546875,-0.12459025626480578,-0.18990707030594348,-0.015905132879316806
1768578445749678800,11.476678955078125,-0.07107552369832992,-0.18478665855228898,-0.02894523171633482
1768578445759651800,11.48665185546875,-0.20392916591763496,-0.1638257035881281,-0.005327917024493217
1768578445769625900,11.4966259765625,-0.24719196906089783,-0.1556990957558155,0.12701689888983964
1768578445779598800,11.506598876953126,-0.19650106174349782,-0.1332072779625654,0.19142039747834205
1768578445789572000,11.516572021484375,-0.3030582331895828,-0.11006605634987354,0.13288959031552075
1768578445799546000,11.526546142578125,-0.4578279391407966,-0.07905483201444148,0.11071779825687408
1768578445809518800,11.536518798828125,-0.42298809642791746,-0.07844225307404995,0.10690525423139333
1768578445819491800,11.546491943359374,-0.28171266282200813,-0.04592237774133682,0.12987111927717923
1768578445829465900,11.5564658203125,-0.26121932536959647,-0.02948153055012226,0.09145137225091457
1768578445839438800,11.56643896484375,-0.2050602157741785,-0.03199497467577457,0.04489449599832296
1768578445849412900,11.576412841796875,-0.14049217427372931,-0.08286825282275677,-0.006022621290385723
1768578445859385900,11.5863857421875,-0.03182663237154484,-0.07572188819944858,-0.01926291887462139
1768578445869359000,11.596359130859375,-0.0725754068672657,-0.02956394813656807,0.022522212931513786
1768578445879333000,11.6063330078125,-0.05559504597187042,-0.06643792702555656,0.10943740305751562
1768578445889305900,11.616305908203126,0.1080593927025795,-0.02305880402624607,0.15592033729106186
1768578445899278800,11.62627880859375,0.31245792969763275,0.0068231240183115,0.2029310947909951
1768578445909253400,11.63625341796875,0.527261540850997,0.0622621026456356,0.2529652917653322
1768578445919226000,11.64622607421875,0.47446109403371806,0.09665361706912518,0.22641104683876037
1768578445929199000,11.65619921875,0.33087972157299517,0.08337854043245314,0.11402706893533468
1768578445939173000,11.666173095703124,0.15339257237911225,-0.0010164835661649703,0.028102643412351608
1768578445949146400,11.676146484375,-0.3644499827414751,-0.016491116073727607,-0.13840835373699664
1768578445959119400,11.686119384765625,-0.5707043767362833,-0.0231751238822937,-0.2395303483918309
1768578445969093400,11.69609326171875,-0.39483693769872186,0.07731237226128577,-0.18319354414194822
1768578445979066400,11.70606640625,-0.2413666239082813,0.07326631174087524,-0.16386384364143014
1768578445989039000,11.7160390625,-0.10998246971964835,-0.06173194129168987,-0.09545242458581923
1768578445999013000,11.72601318359375,0.0900689779818058,-0.1877490154892206,0.007813450229912996
1768578446008986000,11.735986083984375,0.35720249583125113,-0.26251754848659037,0.11689619463086127
1768578446018959400,11.74595947265625,0.6294850670069456,-0.31136487376391886,0.2254303652383387
1768578446028933400,11.755933349609375,0.49496670644581314,-0.28646541030704975,0.2624060509361327
1768578446038906400,11.76590625,0.3839350199341774,-0.12373626978397369,0.20577420926243065
1768578446048879400,11.77587939453125,0.4994967510908842,-0.006415712261199951,0.15250161488875746
1768578446058853400,11.785853271484376,0.18264263226091862,-0.0012584756284952164,0.15117109693735836
1768578446068826000,11.795826171875,-0.14013210878968238,-0.0088578447163105,0.08014423468634485
1768578446078800100,11.805800048828125,-0.18578794454932213,0.09802081376910209,0.05113835882395506
1768578446088773400,11.8157734375,-0.1423760883241892,0.09040566259026526,0.01608567707799375
1768578446098746400,11.825746337890624,0.032117724272608755,-0.035633038917183876,-0.008343319322913885
1768578446108720400,11.835720458984374,0.4561491922736168,-0.09698153384923934,0.06193002114705741
1768578446118693400,11.845693359375,0.31577859855294227,-0.09488426930904388,0.11151092139594256
1768578446128666000,11.855666015625,0.0818733965665102,-0.13551438586115835,0.01958689013198018
1768578446138640100,11.86564013671875,0.08736614876389504,-0.18628829528689383,-0.037385800868645305
1768578446148613000,11.875613037109375,0.07476093421280383,-0.2380342646151781,-0.020952406331524252
1768578446158586400,11.88558642578125,0.03898994812965393,-0.2581020701318979,-0.0853419859925285
1768578446168560400,11.895560302734374,-0.052289574685692786,-0.21040040775835514,-0.12588497225046158
1768578446178533400,11.905533447265626,-0.29172260018289087,-0.07577098803818226,-0.19441786226127294
1768578446188506400,11.91550634765625,-0.3115864075601101,0.06569207709431647,-0.14268405829481778
1768578446198480400,11.92548046875,-0.058496612632274625,0.014084639453887939,0.11750908409850672
1768578446208453000,11.935453125,0.18526187484860418,-0.09952946476638316,0.22608784276638177
1768578446218426000,11.945426025390624,0.0803092159897089,-0.029991818159818648,0.13196469402294606
1768578446228400000,11.955400146484376,-0.0571340921074152,-0.0265519068390131,0.10880249355430714
1768578446238373400,11.965373291015625,0.13626491196751594,-0.06459960568249225,0.08224865961968898
1768578446248346400,11.975346435546875,0.15723580380380153,-0.11831366021335124,0.04633757094610482
1768578446258320400,11.9853203125,0.06399696361422538,-0.18813889158964156,0.03819708071891218
1768578446268293400,11.99529345703125,0.06720248165726661,-0.15446926169991493,0.046869084006920456
1768578446278266000,12.00526611328125,0.039244799673557276,-0.11242343313097954,0.10481346958391367
1768578446288240000,12.015240234375,0.103427641248703,-0.11941256136596202,0.18144198776688425
1768578446298213000,12.025213134765625,-0.030139117676019667,-0.046021746462583536,0.18759324040561914
1768578446308186400,12.035186279296875,-0.18719898039102553,0.10006137968599796,0.147970035873726
1768578446318160400,12.045160400390625,-0.15853344239890574,0.07189443886578083,0.23514161191359162
1768578446328133400,12.05513330078125,-0.3038824090540409,0.018861352336406706,0.20707922744639218
1768578446338106400,12.0651064453125,-0.3204302237510681,0.10102642532587051,0.1320210638526827
1768578446348080000,12.075080078125,-0.24361177248656748,0.07484042918980122,0.11412599926516413
1768578446358053000,12.08505322265625,-0.1437076291888952,-0.04334112907648086,0.09816760182864963
1768578446368026400,12.0950263671875,0.08240764957368374,-0.07375555656254291,0.14417312780879438
1768578446378000400,12.10500048828125,0.3188450003862381,-0.07352759302556515,0.18793080179691313
1768578446387973400,12.114973388671874,0.29455577778220177,-0.1516898601144552,0.22338212747164068
1768578446397946400,12.1249462890625,0.12397241662740707,-0.05245674794614315,0.1429331376850605
1768578446407920400,12.13492041015625,0.011412789896130562,0.03304302242398262,0.031094226443767546
1768578446417893000,12.14489306640625,-0.072349196895957,0.02632920399904251,0.06772942814081907
1768578446427867100,12.1548671875,0.05146773690879344,0.029587913534045218,0.13599077120125294
1768578446437840100,12.164840087890624,0.1644049647808075,-0.047373161071538925,0.1776097526602447
1768578446447813400,12.1748134765625,0.3431827383071184,-0.14824527261853218,0.16696122513487935
1768578446457787400,12.184787353515626,0.4207990619510412,-0.1630623180001974,0.13470949921905995
1768578446467760400,12.194760498046875,0.4617372215390205,-0.1279267072111368,0.12931143956780433
1768578446477733400,12.2047333984375,0.6225871241867542,-0.2630745978474617,0.05952785537615418
1768578446487707400,12.214707275390625,0.7089946570515632,-0.41924131111502644,0.01680938824266195
1768578446497680100,12.22468017578125,0.8702274215370416,-0.4980763628989458,-0.02950637273043394
1768578446507653000,12.234653076171876,1.220620237353444,-0.486110030773282,0.0027894845880568025
1768578446517627100,12.244627197265626,1.1758856080919504,-0.4163011660099029,0.07653101262524724
1768578446527600400,12.254600341796875,0.7644698760360479,-0.17273790884017942,0.10490984263047576
