time,seconds_elapsed,z,y,x
1768580181351565000,0.12056494140625,0.0551198273897171,-0.28236690163612366,0.07436010986566544
1768580181361538000,0.1305380859375,0.04083143174648285,-0.23196445405483246,0.04918817803263664
1768580181371511300,0.14051123046875,0.02701873518526554,-0.1700582206249237,0.04013124108314514
1768580181381485300,0.1504853515625,0.004742457531392574,-0.11212409287691116,0.039258524775505066
1768580181391458300,0.160458251953125,-0.021873291581869125,-0.07997454702854156,0.057827018201351166
1768580181401431300,0.170431396484375,-0.06010403111577034,-0.09291325509548187,0.11283194273710251
1768580181411405000,0.180405029296875,-0.09742570668458939,-0.08583123981952667,0.18574072420597076
1768580181421378000,0.1903779296875,-0.15253183245658875,-0.014789020642638206,0.24045270681381226
1768580181431351300,0.200351318359375,-0.21583908796310425,0.02876264974474907,0.2607831358909607
1768580181441325300,0.2103251953125,-0.23189209401607513,0.057371921837329865,0.27808064222335815
1768580181451298300,0.22029833984375,-0.16611942648887634,0.124698705971241,0.1897939294576645
1768580181461271300,0.230271240234375,-0.006053603254258633,0.17606016993522644,0.040274471044540405
1768580181471245300,0.240245361328125,0.04298318177461624,0.19620032608509064,-0.20254163444042206
1768580181481218000,0.250218017578125,0.046792566776275635,0.20555494725704193,-0.3162194788455963
1768580181491191000,0.26019091796875,0.0541965588927269,0.2554802894592285,-0.3036026954650879
1768580181501165000,0.2701650390625,0.04144641011953354,0.21759362518787384,-0.22695904970169067
1768580181511138300,0.28013818359375,0.0019559012725949287,0.10873778164386749,-0.12552131712436676
1768580181521112300,0.2901123046875,-0.0493171401321888,0.0015998808667063713,0.044154535979032516
1768580181531085300,0.300085205078125,-0.10644031316041946,-0.04275001585483551,0.22968712449073792
1768580181541058300,0.310058349609375,-0.1585754156112671,-0.034475572407245636,0.38207241892814636
1768580181551032300,0.3200322265625,-0.19188794493675232,-0.042708124965429306,0.4352912902832031
1768580181561005000,0.330005126953125,-0.22654499113559723,-0.06447174400091171,0.41082268953323364
1768580181570978000,0.33997802734375,-0.24475345015525818,-0.12026717513799667,0.3377391993999481
1768580181580952000,0.3499521484375,-0.28279486298561096,-0.12254897505044937,0.27754509449005127
1768580181590925300,0.35992529296875,-0.2787402272224426,-0.11678162962198257,0.235885888338089
1768580181600898300,0.369898193359375,-0.28082120418548584,-0.24396567046642303,0.19009949266910553
1768580181610872300,0.379872314453125,-0.2731073498725891,-0.40246185660362244,0.16896198689937592
1768580181620845300,0.38984521484375,-0.2610466778278351,-0.4763038456439972,0.1693231165409088
1768580181630818000,0.399818115234375,-0.2452268898487091,-0.4821617901325226,0.19352363049983978
1768580181640792000,0.4097919921875,-0.23558810353279114,-0.4894580543041229,0.24486911296844482
1768580181650764800,0.419764892578125,-0.18556177616119385,-0.5002166032791138,0.3109287917613983
1768580181660737800,0.42973779296875,-0.07983136177062988,-0.5305553674697876,0.30817481875419617
1768580181670711800,0.4397119140625,-0.026231171563267708,-0.5480729341506958,0.22223685681819916
1768580181680684800,0.449684814453125,0.020858310163021088,-0.448242723941803,0.14083388447761536
1768580181690657500,0.459657470703125,0.03665092587471008,-0.2525499761104584,-0.02807042747735977
1768580181700631600,0.469631591796875,0.067589670419693,-0.20029263198375702,-0.09260494261980057
1768580181710604500,0.4796044921875,0.08733450621366501,-0.0190572589635849,-0.0901961475610733
1768580181720577800,0.489577880859375,0.024361401796340942,0.19939705729484558,-0.11098318547010422
1768580181730551800,0.4995517578125,-0.05553697422146797,0.3995073139667511,-0.11996668577194214
1768580181740524800,0.50952490234375,-0.09965596348047256,0.5478307604789734,-0.14642226696014404
1768580181750497800,0.519497802734375,-0.10280479490756989,0.6227933168411255,-0.19019775092601776
1768580181760471800,0.529471923828125,-0.09709018468856812,0.603783369064331,-0.22887536883354187
1768580181770444500,0.539444580078125,-0.07015243172645569,0.5217153429985046,-0.23751479387283325
1768580181780418600,0.54941845703125,-0.03522959724068642,0.41511961817741394,-0.20641998946666718
1768580181790391800,0.559391845703125,-0.026750601828098297,0.3138669729232788,-0.16227313876152039
1768580181800364800,0.56936474609375,-0.009435526095330715,0.1899506151676178,-0.14837409555912018
1768580181810338800,0.5793388671875,0.02949405275285244,0.07146923989057541,-0.18096700310707092
1768580181820311800,0.589311767578125,0.09157127141952515,-0.010869305580854416,-0.26772692799568176
1768580181830284500,0.599284423828125,0.16460111737251282,-0.0700794979929924,-0.37889912724494934
1768580181840258600,0.609258544921875,0.21552768349647522,-0.09253314137458801,-0.4379243850708008
1768580181850231600,0.6192314453125,0.22163079679012299,-0.11475928872823715,-0.4092513620853424
1768580181860204800,0.629204833984375,0.2024344652891159,-0.1598881483078003,-0.32466137409210205
1768580181870178800,0.6391787109375,0.1897762268781662,-0.21348565816879272,-0.206010103225708
1768580181880151800,0.64915185546875,0.15673784911632538,-0.21927084028720856,-0.07132339477539062
1768580181890124800,0.659124755859375,0.09075941145420074,-0.15221305191516876,0.05524598807096481
1768580181900098800,0.669098876953125,0.011393212713301182,-0.036922406405210495,0.15979504585266113
1768580181910071600,0.679071533203125,-0.05076908320188522,0.06062804535031319,0.22431588172912598
1768580181920044500,0.68904443359375,-0.05870157480239868,0.14015215635299683,0.20634913444519043
1768580181930018600,0.6990185546875,-0.01940498873591423,0.15669193863868713,0.13537278771400452
1768580181939991800,0.70899169921875,0.022580545395612717,0.13734832406044006,0.060806941241025925
1768580181949965800,0.7189658203125,0.05340190976858139,0.09303192794322968,0.011529965326189995
1768580181959938800,0.728938720703125,0.08870956301689148,0.04949670284986496,0.0002698537427932024
1768580181969911800,0.738911865234375,0.10126885771751404,0.031696002930402756,0.04549824446439743
1768580181979885800,0.7488857421875,0.08371543139219284,0.007414098363369703,0.10967882722616196
1768580181989858600,0.758858642578125,0.06135597452521324,-0.01779019460082054,0.1593007743358612
1768580181999831600,0.76883154296875,0.038811780512332916,-0.028773870319128036,0.18532171845436096
1768580182009805600,0.7788056640625,0.025994280353188515,-0.04095975682139397,0.1997719407081604
1768580182019778800,0.78877880859375,0.0038604827132076025,-0.06842999905347824,0.20316188037395477
1768580182029751800,0.798751708984375,0.0023215319961309433,-0.0951056182384491,0.20273253321647644
1768580182039725800,0.808725830078125,0.004354322794824839,-0.08162123709917068,0.19998282194137573
1768580182049698600,0.818698486328125,0.011522727087140083,-0.07074908912181854,0.16220331192016602
1768580182059671600,0.828671630859375,0.02810729667544365,-0.08273012191057205,0.10782662034034729
1768580182069645600,0.8386455078125,0.04942958801984787,-0.09808749705553055,0.06336769461631775
1768580182079618800,0.848618896484375,0.055965252220630646,-0.10279223322868347,0.03887327015399933
1768580182089592600,0.858592529296875,0.041966747492551804,-0.10745450109243393,0.048948854207992554
1768580182099565800,0.86856591796875,0.024482296779751778,-0.12254876643419266,0.0829896479845047
1768580182109538800,0.878538818359375,0.005686352029442787,-0.13298070430755615,0.10692734271287918
1768580182119512800,0.888512939453125,0.016617029905319214,-0.13319721817970276,0.08978137373924255
1768580182129485600,0.898485595703125,0.03812691569328308,-0.1377878338098526,0.07111572474241257
1768580182139458600,0.90845849609375,0.04736887663602829,-0.11665698140859604,0.0849311426281929
1768580182149432600,0.9184326171875,0.03492613881826401,-0.0734720304608345,0.12522009015083313
1768580182159405800,0.92840576171875,0.02922164835035801,-0.023314587771892548,0.16950073838233948
1768580182169378800,0.93837890625,0.02362092025578022,0.013689305633306503,0.19254928827285767
1768580182179352800,0.948352783203125,0.030801599845290184,0.018694717437028885,0.18889516592025757
1768580182189325800,0.958325927734375,0.04371272400021553,0.012616184540092945,0.168734610080719
1768580182199298600,0.968298583984375,0.05202338472008705,-0.00042797764763236046,0.13484562933444977
1768580182209272600,0.9782724609375,0.05560809746384621,-0.019906405359506607,0.08662781119346619
1768580182219245600,0.98824560546875,0.06578963249921799,-0.059662073850631714,0.04777149483561516
1768580182229219600,0.998219482421875,0.069428451359272,-0.08187250792980194,0.039445918053388596
1768580182239192800,1.00819287109375,0.04779000207781792,-0.07234904170036316,0.0538480244576931
1768580182249165800,1.018165771484375,0.03728475421667099,-0.06058885157108307,0.05741693452000618
1768580182259139800,1.028139892578125,0.04792061820626259,-0.050940219312906265,0.0644865557551384
1768580182269112600,1.038112548828125,0.05633332580327988,-0.024565137922763824,0.08027759939432144
1768580182279085600,1.04808544921875,0.05026797577738762,-0.020891575142741203,0.09201281517744064
1768580182289059600,1.0580595703125,0.051123786717653275,-0.012915274128317833,0.09531331807374954
1768580182299032600,1.068032470703125,0.05789434164762497,0.016788028180599213,0.09374977648258209
1768580182309005800,1.078005859375,0.05571286380290985,0.02942458726465702,0.07589532434940338
1768580182318979800,1.087979736328125,0.041654035449028015,0.0323314294219017,0.04321194440126419
1768580182328952800,1.097952880859375,0.024980345740914345,0.019866373389959335,0.004945443477481604
1768580182338925600,1.107925537109375,0.011003278195858002,0.0008098590187728405,-0.013117979280650616
1768580182348899600,1.117899658203125,-0.005850957706570625,0.016141872853040695,-0.013962587341666222
1768580182358872600,1.12787255859375,-0.02652054838836193,0.036294013261795044,-0.008613362908363342
1768580182368846600,1.1378466796875,-0.03965860977768898,0.016850611194968224,0.015882374718785286
1768580182378819600,1.147819580078125,-0.03732488304376602,-0.005435786210000515,0.04464797303080559
1768580182388792800,1.157792724609375,-0.030307341367006302,0.006401365622878075,0.06374459713697433
1768580182398766800,1.167766845703125,-0.0306069478392601,0.0449381060898304,0.07629101723432541
1768580182408739800,1.17773974609375,-0.03216969966888428,0.0824870839715004,0.07603313028812408
1768580182418712600,1.187712646484375,-0.025416720658540726,0.10006634145975113,0.062490157783031464
1768580182428686600,1.1976865234375,-0.016356488689780235,0.09413374215364456,0.0618528388440609
1768580182438659600,1.20765966796875,-0.019407406449317932,0.07530972361564636,0.0615851916372776
1768580182448632800,1.2176328125,-0.021781833842396736,0.053564418107271194,0.04839997738599777
1768580182458606600,1.227606689453125,-0.014960678294301033,0.010334920138120651,0.034035950899124146
1768580182468579800,1.237579833984375,-0.02081156335771084,-0.03076145052909851,0.03558763116598129
1768580182478553900,1.247553955078125,-0.0266574677079916,-0.06042453646659851,0.03501158952713013
1768580182488526800,1.25752685546875,-0.020888321101665497,-0.08882841467857361,0.01919861137866974
1768580182498499600,1.26749951171875,-0.0026344829238951206,-0.09908425062894821,-0.005256397649645805
1768580182508473600,1.2774736328125,0.013093129731714725,-0.10110831260681152,-0.037515439093112946
1768580182518446600,1.287446533203125,0.027029983699321747,-0.0927467867732048,-0.0760098397731781
1768580182528419800,1.297419921875,0.03937665373086929,-0.10373286157846451,-0.10914285480976105
1768580182538393900,1.307393798828125,0.0414067842066288,-0.11267601698637009,-0.11902451515197754
1768580182548366800,1.317366943359375,0.04146738350391388,-0.12181266397237778,-0.12082493305206299
1768580182558339600,1.327339599609375,0.038908619433641434,-0.10282112658023834,-0.11335689574480057
1768580182568313600,1.337313720703125,0.01898631639778614,-0.09096281975507736,-0.10119306296110153
1768580182578286600,1.34728662109375,-0.008316410705447197,-0.08451610058546066,-0.0816502571105957
1768580182588259600,1.357259521484375,-0.027931781485676765,-0.05248565599322319,-0.04547090455889702
1768580182598233600,1.367233642578125,-0.05603691563010216,-0.02992735058069229,-0.02025502920150757
1768580182608206800,1.377206787109375,-0.06923604756593704,-0.008089965209364891,0.013549291528761387
1768580182618180900,1.387180908203125,-0.0819060355424881,0.017093952745199203,0.051837824285030365
1768580182628153900,1.39715380859375,-0.09320896863937378,0.026001032441854477,0.062106505036354065
1768580182638126600,1.407126708984375,-0.08408951014280319,0.022025998681783676,0.05471783131361008
1768580182648100600,1.4171005859375,-0.0650256872177124,0.011144787073135376,0.027978787198662758
1768580182658073600,1.427073486328125,-0.05143184959888458,0.00772155961021781,-0.006208477541804314
1768580182668046600,1.437046630859375,-0.04001801460981369,0.0034649642184376717,-0.03380822017788887
1768580182678020600,1.4470205078125,-0.04443247243762016,0.006014673970639706,-0.03617790341377258
1768580182687993900,1.456993896484375,-0.06184577941894531,0.025021854788064957,0.009849503636360168
1768580182697966800,1.466966796875,-0.08177847415208817,0.043909527361392975,0.06665366142988205
1768580182707940900,1.47694091796875,-0.08984096348285675,0.05939666926860809,0.09305945038795471
1768580182717913600,1.48691357421875,-0.08168184012174606,0.09366356581449509,0.0671711266040802
1768580182727887600,1.4968876953125,-0.060128454118967056,0.11026657372713089,-0.009357099421322346
1768580182737860600,1.506860595703125,-0.023718249052762985,0.08263841271400452,-0.1043294221162796
1768580182747833900,1.516833740234375,0.005261235870420933,0.016191210597753525,-0.16737280786037445
1768580182757807600,1.5268076171875,0.015150352381169796,-0.041512295603752136,-0.16185712814331055
1768580182767780900,1.53678076171875,0.0041670603677630424,-0.09250158071517944,-0.10990779101848602
1768580182777753600,1.546753662109375,-0.008684023283421993,-0.1236504465341568,-0.07992725074291229
1768580182787727600,1.5567275390625,-0.009114800952374935,-0.1241554543375969,-0.07943031936883926
1768580182797700600,1.56670068359375,-0.009077516384422779,-0.10976825654506683,-0.0968969315290451
1768580182807673600,1.576673583984375,-0.0070931194350123405,-0.10231126844882965,-0.1164751723408699
1768580182817647600,1.586647705078125,0.005188580136746168,-0.10842561721801758,-0.14477871358394623
1768580182827620900,1.596620849609375,0.015217442065477371,-0.09489483386278152,-0.16612769663333893
1768580182837593900,1.60659375,0.013717018067836761,-0.0623648464679718,-0.1770501285791397
1768580182847568000,1.61656787109375,0.018544550985097885,-0.01818966493010521,-0.2068680077791214
1768580182857540600,1.62654052734375,0.03848816454410553,0.008187348023056984,-0.2734728455543518
1768580182867514600,1.6365146484375,0.05740071088075638,0.033684588968753815,-0.3510134518146515
1768580182877487600,1.646487548828125,0.07425665855407715,0.05860431492328644,-0.42346739768981934
1768580182887460600,1.656460693359375,0.07330655306577682,0.07641173899173737,-0.46670234203338623
1768580182897434600,1.6664345703125,0.05756060779094696,0.10616191476583481,-0.47170642018318176
1768580182907408000,1.676407958984375,0.03168512135744095,0.12790176272392273,-0.4606874883174896
1768580182917380900,1.686380859375,0.014477371238172054,0.13005439937114716,-0.45815855264663696
1768580182927355000,1.69635498046875,0.012638991698622704,0.12487375736236572,-0.4611564576625824
1768580182937327600,1.70632763671875,0.014107458293437958,0.09758833795785904,-0.49628275632858276
1768580182947300600,1.716300537109375,0.0338578075170517,0.05449539050459862,-0.5587462782859802
1768580182957274600,1.726274658203125,0.06186999753117561,0.010455762036144733,-0.6030306220054626
1768580182967247600,1.73624755859375,0.07219548523426056,-0.022001979872584343,-0.6034554243087769
1768580182977220900,1.746220947265625,0.06672322750091553,-0.04552541300654411,-0.5839623808860779
1768580182987195000,1.75619482421875,0.06815361976623535,-0.04484284669160843,-0.5764016509056091
1768580182997167600,1.766167724609375,0.09630269557237625,-0.02655172348022461,-0.6079369187355042
1768580183007141600,1.7761416015625,0.12692703306674957,-0.019731435924768448,-0.6724640727043152
1768580183017114600,1.786114501953125,0.13449627161026,-0.010586939752101898,-0.7277861833572388
1768580183027087600,1.796087646484375,0.12505090236663818,0.018566619604825974,-0.7471092343330383
1768580183037061600,1.8060615234375,0.10691983997821808,0.0662558451294899,-0.7335894107818604
1768580183047034600,1.81603466796875,0.08335451781749725,0.08883897960186005,-0.7277424931526184
1768580183057007900,1.8260078125,0.07117721438407898,0.08286204934120178,-0.7428622841835022
1768580183066982000,1.83598193359375,0.06733544915914536,0.07381170243024826,-0.7697306871414185
1768580183076954600,1.84595458984375,0.0581054612994194,0.08587582409381866,-0.7980208992958069
1768580183086927600,1.855927734375,0.047647517174482346,0.08316311985254288,-0.8002297878265381
1768580183096901600,1.865901611328125,0.020032932981848717,0.0709911435842514,-0.7661018967628479
1768580183106874600,1.87587451171875,0.0014384971000254154,0.07879899442195892,-0.7337011694908142
1768580183116848600,1.8858486328125,0.0028169492725282907,0.0754343569278717,-0.7288065552711487
1768580183126821600,1.895821533203125,0.01941058039665222,0.09272753447294235,-0.7416832447052002
1768580183136795000,1.905794921875,0.03590327128767967,0.0992131307721138,-0.772633969783783
1768580183146769000,1.915768798828125,0.04981517791748047,0.09935013949871063,-0.8118987679481506
1768580183156741600,1.92574169921875,0.05871919170022011,0.1246219351887703,-0.8673244714736938
1768580183166714600,1.935714599609375,0.056910399347543716,0.12680546939373016,-0.9340035319328308
1768580183176688600,1.945688720703125,0.037938572466373444,0.13738487660884857,-1.003917932510376
1768580183186661600,1.95566162109375,0.019597534090280533,0.15397970378398895,-1.0764678716659546
1768580183196635000,1.965634765625,0.02488311007618904,0.17810767889022827,-1.117971658706665
1768580183206609000,1.97560888671875,0.01721462607383728,0.15816526114940643,-1.1088335514068604
1768580183216582000,1.985581787109375,0.0009626848623156548,0.04928964003920555,-1.0679700374603271
1768580183226556000,1.995555908203125,0.008674932643771172,-0.025719888508319855,-1.0012927055358887
1768580183236528600,2.005528564453125,0.016532855108380318,-0.08800643682479858,-0.926790714263916
1768580183246501600,2.015501708984375,0.019119663164019585,-0.1286308914422989,-0.8686889410018921
1768580183256475600,2.0254755859375,0.04238104075193405,-0.11114643514156342,-0.8268165588378906
1768580183266448600,2.03544873046875,0.04431785270571709,-0.05941519886255264,-0.7722873091697693
1768580183276422000,2.045421875,0.03568708151578903,-0.02545270323753357,-0.7134714126586914
1768580183286396000,2.05539599609375,0.036408185958862305,-0.001989390468224883,-0.6713991761207581
1768580183296368600,2.06536865234375,0.04099681228399277,0.021960150450468063,-0.6478450894355774
1768580183306341600,2.075341552734375,0.044727567583322525,0.0576750710606575,-0.6864337921142578
1768580183316315600,2.085315673828125,0.055671028792858124,0.07484127581119537,-0.7741591334342957
1768580183326288600,2.09528857421875,0.06250181794166565,0.07355676591396332,-0.8648029565811157
1768580183336262700,2.1052626953125,0.0639210119843483,0.057344235479831696,-0.9179623126983643
1768580183346235600,2.115235595703125,0.061708856374025345,0.005658539477735758,-0.9136165976524353
1768580183356209000,2.125208984375,0.04975951835513115,-0.031267788261175156,-0.8473448753356934
1768580183366183000,2.135182861328125,0.032437875866889954,-0.0605493038892746,-0.7638787627220154
1768580183376155600,2.14515576171875,0.02092529647052288,-0.09778935462236404,-0.6958981156349182
1768580183386128600,2.155128662109375,0.028236500918865204,-0.10913022607564926,-0.6755799651145935
1768580183396102700,2.1651025390625,0.03712347149848938,-0.10766362398862839,-0.6799062490463257
1768580183406075600,2.17507568359375,0.0408969409763813,-0.07529076933860779,-0.7032154202461243
1768580183416049700,2.185049560546875,0.03979439288377762,0.03729463368654251,-0.7292089462280273
1768580183426022700,2.195022705078125,0.027530469000339508,0.1674889177083969,-0.7493485808372498
1768580183435996000,2.204995849609375,0.017301000654697418,0.24496321380138397,-0.7568368315696716
1768580183445970000,2.214969970703125,0.01504543051123619,0.2865174412727356,-0.7495917677879333
1768580183455942700,2.224942626953125,0.009463711641728878,0.26348936557769775,-0.7192946076393127
1768580183465915600,2.23491552734375,0.005872183479368687,0.22413361072540283,-0.6609384417533875
1768580183475889700,2.2448896484375,-0.0016563069075345993,0.19290032982826233,-0.6023901700973511
1768580183485862700,2.254862548828125,0.012111080810427666,0.16031137108802795,-0.5709848999977112
1768580183495836700,2.264836669921875,0.037374358624219894,0.1582183837890625,-0.5791131258010864
1768580183505809700,2.2748095703125,0.046594493091106415,0.148078054189682,-0.6274608969688416
1768580183515782700,2.28478271484375,0.030688762664794922,0.15296787023544312,-0.6852693557739258
1768580183525756700,2.294756591796875,0.013500155881047249,0.15955474972724915,-0.7294638156890869
1768580183535729700,2.304729736328125,-0.007198464125394821,0.13773813843727112,-0.7456201314926147
1768580183545702700,2.31470263671875,-0.029478231444954872,0.11333274096250534,-0.7347044944763184
1768580183555676700,2.3246767578125,-0.04826044291257858,0.07216000556945801,-0.6881346106529236
1768580183565649700,2.334649658203125,-0.05323874577879906,0.03928433358669281,-0.6083278059959412
1768580183575623700,2.344623779296875,-0.0648416131734848,0.017348939552903175,-0.5409322381019592
1768580183585596700,2.3545966796875,-0.07723408937454224,-0.002095064613968134,-0.5229687094688416
1768580183595569700,2.364569580078125,-0.0768338292837143,-0.01950814388692379,-0.5277136564254761
1768580183605543700,2.374543701171875,-0.07631779462099075,-0.07272302359342575,-0.544221818447113
1768580183615516700,2.3845166015625,-0.060557737946510315,-0.09116887301206589,-0.5371095538139343
1768580183625489700,2.39448974609375,-0.06386810541152954,-0.044792063534259796,-0.5067877769470215
1768580183635463700,2.404463623046875,-0.07405895739793777,-0.0152733214199543,-0.48116788268089294
1768580183645441000,2.41444091796875,-0.07189243286848068,-0.009855110198259354,-0.46775388717651367
1768580183655415000,2.4244150390625,-0.06357645243406296,-0.000057341065257787704,-0.4510886073112488
1768580183665387800,2.4343876953125,-0.06262297928333282,0.0039668940007686615,-0.41903701424598694
1768580183675361000,2.444361083984375,-0.059258073568344116,0.011220545507967472,-0.37897801399230957
1768580183685335000,2.4543349609375,-0.04628348723053932,0.05523227900266647,-0.32780274748802185
1768580183695308000,2.46430810546875,-0.04159099981188774,0.09863275289535522,-0.26825660467147827
1768580183705281000,2.474281005859375,-0.03194340318441391,0.09008259326219559,-0.23795637488365173
1768580183715255000,2.484255126953125,-0.007173072546720505,0.06549788266420364,-0.24761591851711273
1768580183725228000,2.49422802734375,0.02133217826485634,0.030954238027334213,-0.274794340133667
1768580183735202000,2.5042021484375,0.046654313802719116,-0.003221310442313552,-0.2912193834781647
1768580183745174800,2.5141748046875,0.052674535661935806,-0.01891252025961876,-0.2913973927497864
1768580183755148000,2.52414794921875,0.03983836621046066,-0.0392414927482605,-0.2714308500289917
1768580183765122000,2.5341220703125,0.021315578371286392,-0.04054358974099159,-0.24280495941638947
1768580183775095000,2.544094970703125,0.006348080933094025,-0.02234967052936554,-0.20454838871955872
1768580183785068000,2.554068115234375,-0.009808605536818504,-0.007794104050844908,-0.1538175493478775
1768580183795042000,2.5640419921875,-0.025268256664276123,0.014439563266932964,-0.11973894387483597
1768580183805014800,2.574014892578125,-0.027528028935194016,0.027654580771923065,-0.09711664170026779
1768580183814988800,2.58398876953125,-0.031490813940763474,0.011111291125416756,-0.07695704698562622
1768580183824961800,2.5939619140625,-0.02556692436337471,0.009790616109967232,-0.045382630079984665
1768580183834935000,2.60393505859375,-0.0218342375010252,0.03723688796162605,-0.01362363900989294
1768580183844909000,2.613908935546875,-0.016553565859794617,0.05465250462293625,0.008036399260163307
1768580183854882000,2.623882080078125,-0.006921711843460798,0.04411783814430237,0.012049250304698944
1768580183864855000,2.63385498046875,0.010648502968251705,0.032447606325149536,0.006267106160521507
1768580183874829000,2.6438291015625,0.02069288119673729,0.038021862506866455,-0.015384392812848091
1768580183884801800,2.6538017578125,0.027180204167962074,0.05332958325743675,-0.049180760979652405
1768580183894775800,2.66377587890625,0.02642759494483471,0.052426502108573914,-0.07745794206857681
1768580183904748800,2.673748779296875,0.03507556766271591,0.030941056087613106,-0.08551505953073502
1768580183914722000,2.68372216796875,0.03321961313486099,-0.012651960365474224,-0.07088764756917953
1768580183924696000,2.693696044921875,0.02214738354086876,-0.03508256748318672,-0.03866478428244591
1768580183934669000,2.7036689453125,0.014813036657869816,-0.03418241813778877,0.003323945915326476
1768580183944642000,2.71364208984375,0.007342198397964239,-0.016169197857379913,0.05739990994334221
1768580183954616000,2.723615966796875,0.0016662031412124634,0.0067763300612568855,0.11801105737686157
1768580183964588800,2.7335888671875,0.002040684223175049,0.030862685292959213,0.1608266532421112
1768580183974562800,2.743562744140625,0.009360648691654205,0.03681458160281181,0.18898984789848328
1768580183984535800,2.753535888671875,0.006758552044630051,0.04104654863476753,0.21924510598182678
1768580183994509000,2.763509033203125,0.010651560500264168,0.0787997841835022,0.2535964250564575
1768580184004483000,2.773483154296875,0.014066178351640701,0.07278323173522949,0.24964135885238647
1768580184014456000,2.7834560546875,0.0338665135204792,0.02770363911986351,0.23731227219104767
1768580184024428800,2.7934287109375,0.03843341022729874,-0.00910769309848547,0.22743694484233856
1768580184034402800,2.80340283203125,0.02564464509487152,-0.012713879346847534,0.22228984534740448
1768580184044375800,2.813375732421875,0.018793683499097824,-0.022668588906526566,0.22757036983966827
1768580184054349800,2.823349853515625,0.018140144646167755,-0.057869452983140945,0.24481326341629028
1768580184064323000,2.833322998046875,0.023379717022180557,-0.11043205857276917,0.29622775316238403
1768580184074296000,2.843296142578125,0.03146613761782646,-0.14449442923069,0.3471846878528595
1768580184084270000,2.85327001953125,0.03425110876560211,-0.13828754425048828,0.3956926763057709
1768580184094243000,2.8632431640625,0.04001525416970253,-0.12250618636608124,0.4391389489173889
1768580184104217000,2.873217041015625,0.05279765650629997,-0.09779736399650574,0.4669371247291565
1768580184114189800,2.88318994140625,0.06883388012647629,-0.07143260538578033,0.47132787108421326
1768580184124162800,2.893162841796875,0.07489059865474701,-0.05666718631982803,0.4635208547115326
1768580184134136800,2.90313671875,0.08745432645082474,-0.07166983932256699,0.4534996449947357
1768580184144110000,2.913110107421875,0.10285453498363495,-0.09404156357049942,0.4718809425830841
1768580184154083000,2.9230830078125,0.09414706379175186,-0.10467396676540375,0.515108585357666
1768580184164057000,2.93305712890625,0.08021967113018036,-0.09853453189134598,0.5636602640151978
1768580184174030000,2.943030029296875,0.07197292149066925,-0.09350888431072235,0.6088215708732605
1768580184184004000,2.953004150390625,0.06597819179296494,-0.0799001157283783,0.635621190071106
1768580184193976800,2.962976806640625,0.0726049393415451,-0.07206269353628159,0.6444244980812073
1768580184203949800,2.97294970703125,0.08555684238672256,-0.08195807039737701,0.6416958570480347
1768580184213923800,2.982923828125,0.08507640659809113,-0.10644397139549255,0.6363738179206848
1768580184223897000,2.99289697265625,0.0826733410358429,-0.11849897354841232,0.6356346607208252
1768580184233871000,3.00287109375,0.08796637505292892,-0.12756064534187317,0.6333808302879333
1768580184243844000,3.012843994140625,0.08111366629600525,-0.14770174026489258,0.6406446695327759
1768580184253816800,3.02281689453125,0.060430221259593964,-0.16858065128326416,0.6607667207717896
1768580184263790800,3.032790771484375,0.036195166409015656,-0.16947335004806519,0.6946465969085693
1768580184273763800,3.042763916015625,0.01817328669130802,-0.15451064705848694,0.737492024898529
1768580184283736800,3.05273681640625,0.004536718130111694,-0.17066790163516998,0.7723506093025208
1768580184293710800,3.0627109375,0.006535952910780907,-0.20875750482082367,0.7935022115707397
1768580184303684000,3.07268408203125,0.0033260167110711336,-0.2179826945066452,0.8219420313835144
1768580184313658000,3.082658203125,-0.003916449844837189,-0.2435160130262375,0.8484588861465454
1768580184323631000,3.092631103515625,-0.006728393957018852,-0.2640463709831238,0.8776124715805054
1768580184333603800,3.102603759765625,-0.007047174498438835,-0.25129222869873047,0.8882403373718262
1768580184343577900,3.112577880859375,-0.013089224696159363,-0.21163257956504822,0.8884469866752625
1768580184353550800,3.12255078125,-0.02282015047967434,-0.14183272421360016,0.8694216012954712
1768580184363524900,3.13252490234375,-0.028391124680638313,-0.07914500683546066,0.8221145272254944
1768580184373497900,3.142497802734375,-0.03974524512887001,-0.0175628662109375,0.774999737739563
1768580184383471000,3.15247119140625,-0.06678298115730286,0.02335590124130249,0.7689318656921387
1768580184393445000,3.162445068359375,-0.08970720320940018,0.05044477805495262,0.7855086922645569
1768580184403418000,3.172418212890625,-0.11682334542274475,0.06068228930234909,0.7956368923187256
1768580184413392100,3.18239208984375,-0.1400117427110672,0.07089125365018845,0.8048055768013
1768580184423364900,3.19236474609375,-0.14081010222434998,0.08002529293298721,0.8049343824386597
1768580184433337900,3.202337890625,-0.14020317792892456,0.07074790447950363,0.8064292669296265
1768580184443311900,3.212311767578125,-0.1438409686088562,0.052974969148635864,0.8057928681373596
1768580184453284900,3.222284912109375,-0.14166809618473053,0.05025641620159149,0.812785804271698
1768580184463258000,3.232258056640625,-0.1446426659822464,0.06333605945110321,0.8245512247085571
1768580184473232100,3.242232177734375,-0.14842568337917328,0.06367214769124985,0.8213503956794739
1768580184483204900,3.252204833984375,-0.16222111880779266,0.09115011245012283,0.8162102103233337
1768580184493179000,3.262178955078125,-0.17415368556976318,0.11847494542598724,0.8076418042182922
1768580184503151900,3.27215185546875,-0.1762973815202713,0.16265161335468292,0.8111813068389893
1768580184513124900,3.282124755859375,-0.17494449019432068,0.1906408965587616,0.820253849029541
1768580184523099000,3.292098876953125,-0.1687910258769989,0.18736198544502258,0.8127428889274597
1768580184533072000,3.30207177734375,-0.15931576490402222,0.17912882566452026,0.791195809841156
1768580184543046000,3.3120458984375,-0.14531072974205017,0.1729481816291809,0.7744490504264832
1768580184553019100,3.32201904296875,-0.14236873388290405,0.15079599618911743,0.7758751511573792
1768580184562991900,3.331991943359375,-0.1397225260734558,0.1446634829044342,0.7920787334442139
1768580184572966000,3.3419658203125,-0.13156074285507202,0.12997721135616302,0.8083458542823792
1768580184582939000,3.35193896484375,-0.12063448876142502,0.10997059941291809,0.8010643720626831
1768580184592912000,3.361911865234375,-0.10754291713237762,0.10766430199146271,0.7940258979797363
1768580184602886000,3.371885986328125,-0.09690161049365997,0.1180582121014595,0.7801499366760254
1768580184612859100,3.381859130859375,-0.08450086414813995,0.11794023215770721,0.7585493326187134
1768580184622833000,3.3918330078125,-0.07165408134460449,0.0971388965845108,0.7279847264289856
1768580184632806100,3.40180615234375,-0.04588719457387924,0.08947432041168213,0.7063294649124146
1768580184642779000,3.41177880859375,-0.03008847124874592,0.09378333389759064,0.6975358724594116
1768580184652749300,3.421749267578125,-0.02040867879986763,0.0950201079249382,0.6791664361953735
1768580184662722300,3.431722412109375,-0.009133907966315746,0.09542668610811234,0.6495911478996277
1768580184672696300,3.4416962890625,0.00907199364155531,0.07468092441558838,0.6093891263008118
1768580184682669300,3.45166943359375,0.01829553209245205,0.050886355340480804,0.5803325176239014
1768580184692642300,3.461642333984375,0.021407168358564377,0.034875430166721344,0.5796752572059631
1768580184702616300,3.4716162109375,0.01744416356086731,0.033911652863025665,0.6124281883239746
1768580184712589300,3.48158935546875,0.01600738801062107,0.03960549086332321,0.6457294225692749
1768580184722563300,3.491563232421875,0.024477826431393623,0.04649464413523674,0.6482025384902954
1768580184732536300,3.501536376953125,0.0481000617146492,0.06269252300262451,0.6241563558578491
1768580184742509300,3.51150927734375,0.08392733335494995,0.09209134429693222,0.5861638188362122
1768580184752483300,3.5214833984375,0.10377293825149536,0.14724567532539368,0.5491426587104797
1768580184762456300,3.531456298828125,0.0878511443734169,0.1960734724998474,0.5296672582626343
1768580184772430300,3.541430419921875,0.07038773596286774,0.21896147727966309,0.5264298915863037
1768580184782403300,3.5514033203125,0.0628359466791153,0.20577576756477356,0.5313006043434143
1768580184792376300,3.561376220703125,0.06021859496831894,0.17021536827087402,0.5490391254425049
1768580184802350300,3.571350341796875,0.05495523288846016,0.13760508596897125,0.5723894238471985
1768580184812323300,3.5813232421875,0.051148779690265656,0.10708525776863098,0.6027411818504333
1768580184822297300,3.59129736328125,0.03622117638587952,0.09359109401702881,0.6428917646408081
1768580184832270300,3.601270263671875,0.020080555230379105,0.0776028111577034,0.6893690228462219
1768580184842243300,3.611243408203125,0.018244512379169464,0.04063713550567627,0.7197712063789368
1768580184852217300,3.62121728515625,0.029274260625243187,0.002558460459113121,0.7233582139015198
1768580184862190300,3.6311904296875,0.036960143595933914,-0.022195620462298393,0.7082895040512085
1768580184872164400,3.641164306640625,0.041596442461013794,-0.03293908014893532,0.6720958352088928
1768580184882137300,3.651137451171875,0.04808037728071213,-0.024365762248635292,0.6314041614532471
1768580184892110300,3.6611103515625,0.05562884360551834,-0.012209231033921242,0.6059485673904419
1768580184902084400,3.67108447265625,0.06027349457144737,-0.02128623239696026,0.6016151905059814
1768580184912057300,3.681057373046875,0.0623459666967392,-0.07203196734189987,0.6148388385772705
1768580184922030300,3.6910302734375,0.06736729294061661,-0.12304608523845673,0.6374666094779968
1768580184932004000,3.701004150390625,0.0698632076382637,-0.1490558534860611,0.6517398357391357
1768580184941977300,3.710977294921875,0.06952668726444244,-0.1771133542060852,0.650610625743866
1768580184951951400,3.720951416015625,0.08056601881980896,-0.2217862904071808,0.6394519805908203
1768580184961924400,3.73092431640625,0.07660689204931259,-0.24769026041030884,0.638163149356842
1768580184971897300,3.7408974609375,0.06834310293197632,-0.25403204560279846,0.6370829939842224
1768580184981871400,3.750871337890625,0.056969065219163895,-0.2451973408460617,0.6286126971244812
1768580184991844400,3.76084423828125,0.058411434292793274,-0.22700102627277374,0.6085146069526672
1768580185001818400,3.770818359375,0.06825906038284302,-0.22028221189975739,0.5778107047080994
1768580185011791000,3.780791015625,0.08246196806430817,-0.22172671556472778,0.5395671725273132
1768580185021764400,3.790764404296875,0.09092770516872406,-0.2114715874195099,0.5138206481933594
1768580185031738400,3.80073828125,0.08774709701538086,-0.20882520079612732,0.5001493096351624
1768580185041711400,3.81071142578125,0.07391232252120972,-0.20891979336738586,0.4710790514945984
1768580185051685400,3.820685302734375,0.06972556561231613,-0.1989089697599411,0.41792526841163635
1768580185061658400,3.830658447265625,0.06400737166404724,-0.19504325091838837,0.3500506579875946
1768580185071631400,3.84063134765625,0.05664186552166939,-0.20672760903835297,0.27346429228782654
1768580185081605400,3.85060546875,0.05351908504962921,-0.22473588585853577,0.2071324735879898
1768580185091578400,3.860578369140625,0.049459364265203476,-0.2305508852005005,0.15645970404148102
1768580185101552000,3.87055224609375,0.03473064675927162,-0.18972405791282654,0.1024140864610672
1768580185111525400,3.880525390625,0.02719283662736416,-0.11284871399402618,0.02837873436510563
1768580185121498400,3.890498291015625,0.023433484137058258,0.03360632434487343,-0.03207670524716377
1768580185131472400,3.900472412109375,-0.0033403392881155014,0.13167749345302582,-0.05211406201124191
1768580185141445400,3.9104453125,-0.017645467072725296,0.14124882221221924,-0.028793353587388992
1768580185151419400,3.92041943359375,-0.00635872408747673,0.10702746361494064,0.01713179424405098
1768580185161392000,3.93039208984375,-0.003522181883454323,0.09392391890287399,0.0541546456515789
1768580185171365400,3.940365478515625,-0.0017256131395697594,0.09604752063751221,0.0493236742913723
1768580185181339100,3.950339111328125,0.011851981282234192,0.10460106283426285,0.022559434175491333
1768580185191312400,3.9603125,0.022509686648845673,0.10689910501241684,-0.01578369177877903
1768580185201286400,3.970286376953125,0.01517537236213684,0.06885071098804474,-0.043300461024045944
1768580185211259400,3.98025927734375,0.004171457607299089,0.017895380035042763,-0.059188347309827805
1768580185221232400,3.990232421875,-0.018825683742761612,-0.012161027640104294,-0.05676788091659546
1768580185231206400,4.000206298828125,-0.03819325566291809,-0.033174432814121246,-0.0597386360168457
1768580185241179100,4.01017919921875,-0.04657526686787605,-0.0516589879989624,-0.07966896146535873
1768580185251153200,4.020153076171875,-0.05526915565133095,-0.04479788616299629,-0.10143977403640747
1768580185261126400,4.03012646484375,-0.05392073094844818,-0.01721133291721344,-0.12090665847063065
1768580185271099400,4.040099365234375,-0.046892113983631134,0.05581653490662575,-0.11670205742120743
1768580185281073400,4.050073486328125,-0.05556579679250717,0.13670748472213745,-0.08979036659002304
1768580185291046400,4.06004638671875,-0.057872891426086426,0.16832825541496277,-0.06421922147274017
1768580185301020400,4.0700205078125,-0.037438154220581055,0.14371204376220703,-0.04197269305586815
1768580185310993400,4.079993408203125,-0.0007744189351797104,0.08225347101688385,-0.026893604546785355
1768580185320966100,4.089966064453125,0.019887741655111313,0.014696970582008362,-0.016791226342320442
1768580185330940200,4.099940185546875,0.023705650120973587,-0.03728553652763367,-0.015537144616246223
1768580185340913400,4.109913330078125,0.030911115929484367,-0.10694076865911484,-0.023353803902864456
1768580185350887400,4.119887451171875,0.04127960279583931,-0.20821066200733185,-0.05567046254873276
1768580185360860400,4.1298603515625,0.04845617339015007,-0.3236654996871948,-0.10043150186538696
1768580185370833400,4.13983349609375,0.06249689310789108,-0.4332098364830017,-0.1440942883491516
1768580185380807400,4.149807373046875,0.07646278291940689,-0.5462357401847839,-0.17600975930690765
1768580185390780400,4.159780517578125,0.09506735950708389,-0.60728520154953,-0.20134679973125458
1768580185400754200,4.169754150390625,0.09686951339244843,-0.6369911432266235,-0.22285088896751404
1768580185410727200,4.17972705078125,0.09678429365158081,-0.6226583123207092,-0.22073741257190704
1768580185420700400,4.189700439453125,0.07611353695392609,-0.6037343740463257,-0.1879606992006302
1768580185430674400,4.19967431640625,0.049391116946935654,-0.5973281264305115,-0.1423649787902832
1768580185440647400,4.2096474609375,0.03844413906335831,-0.6136037111282349,-0.09146988391876221
1768580185450621400,4.219621337890625,0.031403541564941406,-0.6729264259338379,-0.05603013560175896
1768580185460594400,4.229594482421875,0.02282802015542984,-0.801811695098877,-0.003260444849729538
1768580185470567200,4.239567138671875,0.018812505528330803,-1.0277432203292847,0.05196312814950943
1768580185480541200,4.249541259765625,0.03735903277993202,-1.131940484046936,0.09490126371383667
1768580185490514200,4.25951416015625,0.06413658708333969,-1.2810133695602417,0.10228034853935242
1768580185500488200,4.26948828125,0.07123930007219315,-1.3537626266479492,0.07327482849359512
1768580185510461400,4.27946142578125,0.08173535019159317,-1.4059243202209473,0.02409982495009899
1768580185520434400,4.289434326171875,0.10746205598115921,-1.444629192352295,-0.03390520066022873
1768580185530408400,4.299408447265625,0.1321181356906891,-1.4381933212280273,-0.0972554087638855
1768580185540381400,4.30938134765625,0.14286844432353973,-1.3702976703643799,-0.1367780566215515
1768580185550355500,4.31935546875,0.11090543866157532,-1.29828941822052,-0.14068545401096344
1768580185560328200,4.329328125,0.07995802164077759,-1.2139017581939697,-0.11553353071212769
1768580185570301200,4.33930126953125,0.06688030064105988,-1.1035864353179932,-0.10751528292894363
1768580185580275200,4.349275146484375,0.04786669835448265,-1.0030357837677002,-0.09514574706554413
1768580185590248400,4.35924853515625,0.02084386721253395,-0.9640655517578125,-0.06439182907342911
1768580185600222500,4.369222412109375,0.001765180379152298,-1.035488247871399,-0.05916992947459221
1768580185610195500,4.379195556640625,0.02856243960559368,-1.1576842069625854,-0.06574501097202301
1768580185620168400,4.38916845703125,0.0439014658331871,-1.3069071769714355,-0.06689845025539398
1768580185630142200,4.39914208984375,0.0308796726167202,-1.462566614151001,-0.055907055735588074
1768580185640115200,4.409115234375,0.023490680381655693,-1.5823183059692383,-0.045364860445261
1768580185650089000,4.4190888671875,0.028544828295707703,-1.653150200843811,-0.0687524750828743
1768580185660062000,4.42906201171875,0.04033003747463226,-1.6682946681976318,-0.08810795843601227
1768580185670035200,4.43903515625,0.03732066601514816,-1.6426916122436523,-0.11674199998378754
1768580185680009200,4.44900927734375,0.0409153588116169,-1.5194792747497559,-0.13952872157096863
1768580185689982200,4.458982177734375,0.04538174718618393,-1.3411753177642822,-0.21390947699546814
1768580185699956200,4.468956298828125,0.05249488726258278,-1.1556448936462402,-0.34827545285224915
1768580185709929200,4.47892919921875,0.059220701456069946,-1.0027217864990234,-0.4970018267631531
1768580185719902000,4.48890185546875,0.06904923915863037,-0.9278927445411682,-0.601677417755127
1768580185729876000,4.4988759765625,0.08303536474704742,-0.933810830116272,-0.6293545961380005
1768580185739849200,4.50884912109375,0.09339167922735214,-1.001662015914917,-0.5819410085678101
1768580185749823000,4.518822998046875,0.08535559475421906,-1.119622826576233,-0.49992042779922485
1768580185759796200,4.528796142578125,0.085758738219738,-1.2424030303955078,-0.41525259613990784
1768580185769769200,4.538769287109375,0.10285703092813492,-1.361810326576233,-0.37671560049057007
1768580185779743200,4.5487431640625,0.12295056134462357,-1.4513561725616455,-0.35957545042037964
1768580185789716000,4.558716064453125,0.15374602377414703,-1.4674190282821655,-0.37694138288497925
1768580185799690000,4.56868994140625,0.19510440528392792,-1.435082197189331,-0.4353911578655243
1768580185809663000,4.5786630859375,0.2258245050907135,-1.3341193199157715,-0.47077471017837524
1768580185819636200,4.58863623046875,0.2223176807165146,-1.1374226808547974,-0.5009781718254089
1768580185829610000,4.59860986328125,0.20790891349315643,-0.9349226355552673,-0.535487949848175
1768580185839583200,4.608583251953125,0.18155907094478607,-0.8184096813201904,-0.5402470231056213
1768580185849557200,4.61855712890625,0.15204006433486938,-0.7567460536956787,-0.5040938258171082
1768580185859530200,4.6285302734375,0.11900496482849121,-0.750275194644928,-0.46638748049736023
1768580185869503000,4.6385029296875,0.09457632154226303,-0.7767184972763062,-0.4560362994670868
1768580185879477000,4.64847705078125,0.06271496415138245,-0.8147494792938232,-0.4649222195148468
1768580185889450000,4.658449951171875,0.047717370092868805,-0.8641316294670105,-0.4538024365901947
1768580185899424000,4.668424072265625,0.03892771899700165,-0.9194425940513611,-0.4038315415382385
1768580185909397200,4.678397216796875,0.01514329481869936,-0.9835808277130127,-0.36926424503326416
1768580185919370200,4.688370361328125,0.02747116982936859,-1.0433045625686646,-0.3692074418067932
1768580185929344300,4.69834423828125,0.057946786284446716,-1.049780011177063,-0.38592728972435
1768580185939317200,4.708317138671875,0.08486063778400421,-1.0395585298538208,-0.4074937701225281
1768580185949291300,4.718291259765625,0.09724939614534378,-1.0172207355499268,-0.4103289246559143
1768580185959264000,4.728263916015625,0.09094461053609848,-0.9779903888702393,-0.4071037173271179
1768580185969237000,4.738237060546875,0.07266067713499069,-0.9144865274429321,-0.37966302037239075
1768580185979211000,4.7482109375,0.03870153799653053,-0.8568135499954224,-0.34806033968925476
1768580185989184300,4.758184326171875,-0.010166932828724384,-0.8111323714256287,-0.27628573775291443
1768580185999158000,4.768157958984375,-0.0651434138417244,-0.8207774758338928,-0.16189797222614288
1768580186009131300,4.77813134765625,-0.12319526821374893,-0.8848102688789368,-0.05650230124592781
1768580186019104000,4.78810400390625,-0.15879055857658386,-0.9640680551528931,0.01864597573876381
1768580186029078000,4.798078125,-0.1577303409576416,-0.9999842643737793,0.07804671674966812
1768580186039051000,4.808051025390625,-0.16027602553367615,-1.04476797580719,0.08494558185338974
1768580186049025000,4.81802490234375,-0.15835829079151154,-1.0627882480621338,0.06678628921508789
1768580186058998000,4.827998046875,-0.16395945847034454,-1.0225926637649536,0.05617585778236389
1768580186068971300,4.83797119140625,-0.18297895789146423,-0.9475234746932983,0.059992700815200806
1768580186078945300,4.8479453125,-0.2094011753797531,-0.8610634803771973,0.08040758967399597
1768580186088918300,4.857918212890625,-0.2568163275718689,-0.8433234095573425,0.14228694140911102
1768580186098892300,4.867892333984375,-0.30458512902259827,-0.8850753903388977,0.2604091763496399
1768580186108865000,4.877864990234375,-0.3492010831832886,-0.9812275171279907,0.3739280700683594
1768580186118839000,4.887839111328125,-0.35528311133384705,-1.1180932521820068,0.47725537419319153
1768580186128812000,4.89781201171875,-0.33973875641822815,-1.2408747673034668,0.5401009321212769
1768580186138785000,4.907784912109375,-0.3331291675567627,-1.297206997871399,0.5620025992393494
1768580186148759000,4.917759033203125,-0.35480809211730957,-1.2528952360153198,0.5749189257621765
1768580186158732300,4.927732177734375,-0.38963595032691956,-1.1636630296707153,0.5426725745201111
1768580186168706300,4.937706298828125,-0.3973945379257202,-1.0649460554122925,0.45272907614707947
1768580186178679300,4.94767919921875,-0.38653168082237244,-0.8797091841697693,0.32734203338623047
1768580186188652000,4.957652099609375,-0.3565966784954071,-0.6623755097389221,0.19706179201602936
1768580186198626000,4.9676259765625,-0.3052632212638855,-0.48413655161857605,0.09150010347366333
1768580186208599000,4.97759912109375,-0.22199466824531555,-0.3550371527671814,0.0043327114544808865
1768580186218573000,4.987572998046875,-0.13526296615600586,-0.2631272077560425,-0.060594890266656876
1768580186228546000,4.997546142578125,-0.05519796907901764,-0.1802770495414734,-0.11037043482065201
1768580186238519300,5.007519287109375,0.009395025670528412,-0.1252424269914627,-0.13768455386161804
1768580186248493300,5.017493408203125,0.06093518063426018,-0.10136637836694717,-0.10826569050550461
1768580186258466000,5.027466064453125,0.0696440190076828,-0.034715812653303146,-0.03319178521633148
1768580186268440000,5.037440185546875,0.06011255830526352,0.04527462646365166,-0.015748880803585052
1768580186278413000,5.0474130859375,0.08172836154699326,0.16732926666736603,-0.05821744725108147
1768580186288387000,5.057386962890625,0.08135471493005753,0.28200632333755493,-0.11526129394769669
1768580186298360000,5.067360107421875,0.07239311933517456,0.35921141505241394,-0.18885153532028198
1768580186308333000,5.0773330078125,0.10756442695856094,0.3883117735385895,-0.24538858234882355
1768580186318307000,5.08730712890625,0.10879123210906982,0.38148054480552673,-0.26575136184692383
1768580186328280300,5.0972802734375,0.10313519835472107,0.3863746225833893,-0.23072120547294617
1768580186338254300,5.10725439453125,0.09579108655452728,0.39461493492126465,-0.1591925472021103
1768580186348227000,5.11722705078125,0.08484070003032684,0.41944918036460876,-0.12358500063419342
1768580186358200000,5.127199951171875,0.08303558081388474,0.4968389868736267,-0.07355792075395584
1768580186368174000,5.137174072265625,0.0691908672451973,0.6069122552871704,0.007848524488508701
1768580186378147000,5.14714697265625,0.03680545091629028,0.7051770687103271,0.06449072808027267
1768580186388121000,5.15712109375,0.022680575028061867,0.8028546571731567,0.08293924480676651
1768580186398094000,5.167093994140625,0.01831902749836445,0.9130908250808716,0.07553262263536453
1768580186408067300,5.1770673828125,0.0010098125785589218,1.039331316947937,0.051356714218854904
1768580186418041300,5.187041259765625,-0.009209713898599148,1.2111278772354126,0.013844061642885208
1768580186428014000,5.19701416015625,-0.03835854306817055,1.3745218515396118,-0.0006581820780411363
1768580186437988000,5.206988037109375,-0.08186562359333038,1.505450963973999,0.01705114170908928
1768580186447961000,5.216961181640625,-0.12680299580097198,1.5892659425735474,0.08360513299703598
1768580186457935000,5.22693505859375,-0.1813439577817917,1.645032525062561,0.17365996539592743
1768580186467908000,5.236908203125,-0.2325136661529541,1.680453896522522,0.2799925208091736
1768580186477881000,5.246881103515625,-0.23865695297718048,1.7430058717727661,0.3612131178379059
1768580186487855000,5.256855224609375,-0.20773684978485107,1.8296787738800049,0.3514867126941681
1768580186497828000,5.266828125,-0.15660253167152405,1.9302040338516235,0.24172157049179077
1768580186507802000,5.276802001953125,-0.10192970186471939,2.0208399295806885,0.09049638360738754
1768580186517775000,5.286775146484375,-0.091497503221035,2.063608407974243,-0.07349398732185364
1768580186527748000,5.296748046875,-0.055056944489479065,2.036447763442993,-0.208205446600914
1768580186537722000,5.30672216796875,0.11337200552225113,2.0112695693969727,-0.3509199619293213
1768580186547695000,5.316695068359375,0.35808905959129333,1.6489561796188354,-0.422478049993515
1768580186557669000,5.326669189453125,0.4637126624584198,1.3830950260162354,-0.4285956621170044
1768580186567642000,5.33664208984375,0.29408368468284607,1.2615731954574585,-0.30064088106155396
1768580186577615000,5.346614990234375,0.17391625046730042,1.1846197843551636,-0.02994135208427906
1768580186587589000,5.356589111328125,0.08341964334249496,1.137440800666809,0.22756581008434296
1768580186597562000,5.36656201171875,0.04685717076063156,1.1424390077590942,0.3361087143421173
1768580186607536000,5.3765361328125,0.054636795073747635,1.2416212558746338,0.25748711824417114
1768580186617509000,5.386509033203125,0.0684862732887268,1.3993905782699585,0.12154355645179749
1768580186627483100,5.396483154296875,0.08195601403713226,1.5584337711334229,0.03928783908486366
1768580186637456100,5.4064560546875,0.06979828327894211,1.6952580213546753,0.033661577850580215
1768580186647429400,5.416429443359375,0.043820738792419434,1.798903465270996,0.06795962899923325
1768580186657403400,5.4264033203125,0.015201208181679249,1.8538907766342163,0.10788355022668839
1768580186667376600,5.436376708984375,-0.015503175556659698,1.8679379224777222,0.14597341418266296
1768580186677350400,5.446350341796875,-0.036580394953489304,1.8101011514663696,0.17637847363948822
1768580186687323600,5.45632373046875,-0.03997379541397095,1.7288424968719482,0.20366202294826508
1768580186697296400,5.46629638671875,-0.030779529362916946,1.6391509771347046,0.22837111353874207
1768580186707270400,5.4762705078125,-0.041733644902706146,1.5786277055740356,0.23657338321208954
1768580186717243400,5.486243408203125,-0.055904313921928406,1.568447232246399,0.22102703154087067
1768580186727217400,5.496217529296875,-0.0861988440155983,1.6262189149856567,0.17179690301418304
1768580186737190400,5.5061904296875,-0.13774962723255157,1.7325937747955322,0.11553429067134857
1768580186747163600,5.51616357421875,-0.2061430662870407,1.8850525617599487,0.07804497331380844
1768580186757137700,5.5261376953125,-0.26755136251449585,2.085571527481079,0.07067783921957016
1768580186767110700,5.536110595703125,-0.28237372636795044,2.3157079219818115,0.09992014616727829
1768580186777084700,5.546084716796875,-0.23476529121398926,2.4774608612060547,0.10238754749298096
1768580186787057400,5.556057373046875,-0.17193758487701416,2.516268730163574,0.03429238125681877
1768580186797031400,5.566031494140625,-0.12423104047775269,2.521401882171631,-0.09828431159257889
1768580186807004400,5.57600439453125,-0.09987163543701172,2.499605417251587,-0.20498785376548767
1768580186816977400,5.585977294921875,-0.10579407960176468,2.466381549835205,-0.25108960270881653
1768580186826951400,5.595951416015625,-0.061119817197322845,2.353729724884033,-0.22260682284832
1768580186836924700,5.605924560546875,-0.04999323934316635,2.280183792114258,-0.1839432418346405
1768580186846898400,5.6158984375,-0.049901627004146576,2.2442197799682617,-0.14289647340774536
1768580186856871700,5.62587158203125,-0.052820611745119095,2.15744948387146,-0.0850687175989151
1768580186866844400,5.635844482421875,-0.05490826442837715,2.042703151702881,-0.01937040314078331
1768580186876818400,5.645818359375,-0.03993790224194527,2.010999917984009,0.026316625997424126
1768580186886791400,5.65579150390625,-0.010136865079402924,1.9604135751724243,0.012706540524959564
1768580186896765400,5.665765380859375,0.005166699644178152,1.842920184135437,-0.07949274033308029
1768580186906738400,5.675738525390625,0.027059216052293777,1.762916922569275,-0.1984391063451767
1768580186916712400,5.68571240234375,0.049445874989032745,1.7365094423294067,-0.29289084672927856
1768580186926685700,5.695685791015625,0.06000770628452301,1.715071201324463,-0.35190489888191223
1768580186936658400,5.705658447265625,0.05296972021460533,1.7234317064285278,-0.3872711658477783
1768580186946632400,5.715632568359375,0.05012999102473259,1.769578456878662,-0.39931797981262207
1768580186956605400,5.72560546875,0.057051461189985275,1.8719022274017334,-0.3890720307826996
1768580186966579500,5.735579345703125,0.050238560885190964,2.0302205085754395,-0.36607909202575684
1768580186976552400,5.745552490234375,0.05049363151192665,2.1565322875976562,-0.3483649790287018
1768580186986525400,5.755525390625,0.05771452561020851,2.22279691696167,-0.3274410665035248
1768580186996499500,5.76549951171875,0.07327254116535187,2.2616779804229736,-0.2980145812034607
1768580187006472700,5.77547265625,0.07415005564689636,2.29362416267395,-0.27870693802833557
1768580187016446500,5.785446533203125,0.08162269741296768,2.3591325283050537,-0.2999826967716217
1768580187026419500,5.79541943359375,0.09472332149744034,2.4424829483032227,-0.3540845513343811
1768580187036392400,5.805392333984375,0.09839889407157898,2.4714603424072266,-0.41722869873046875
1768580187046366500,5.815366455078125,0.12786677479743958,2.3908307552337646,-0.40745702385902405
1768580187056339500,5.82533935546875,0.14817063510417938,2.2485744953155518,-0.35027486085891724
1768580187066313500,5.8353134765625,0.16050373017787933,2.0744826793670654,-0.33522534370422363
1768580187076286500,5.845286376953125,0.177861288189888,2.0135905742645264,-0.3565213680267334
1768580187086260500,5.855260498046875,0.16546641290187836,2.105465888977051,-0.34158292412757874
1768580187096233700,5.865233642578125,0.13784942030906677,2.2254769802093506,-0.29173800349235535
1768580187106206500,5.87520654296875,0.13360461592674255,2.3218917846679688,-0.23950940370559692
1768580187116180500,5.885180419921875,0.12286706268787384,2.4171459674835205,-0.20780056715011597
1768580187126153500,5.895153564453125,0.1089714765548706,2.5532455444335938,-0.1966398060321808
1768580187136127500,5.90512744140625,0.07795581221580505,2.714815855026245,-0.18458247184753418
1768580187146100500,5.9151005859375,0.049863725900650024,2.831266403198242,-0.13796783983707428
1768580187156073500,5.925073486328125,0.055834103375673294,2.9261252880096436,-0.10350459814071655
1768580187166047500,5.935047607421875,0.05665675550699234,3.0091352462768555,-0.12064123898744583
1768580187176020500,5.9450205078125,0.04814644157886505,3.129204034805298,-0.1835019290447235
1768580187185994500,5.954994384765625,0.03057677112519741,3.197199821472168,-0.26734861731529236
1768580187195967500,5.964967529296875,0.02982020378112793,3.046811819076538,-0.31493744254112244
1768580187205941500,5.97494140625,0.0651603490114212,2.775578022003174,-0.33966806530952454
1768580187215914500,5.98491455078125,0.07814166694879532,2.4723892211914062,-0.2869240343570709
1768580187225887500,5.994887451171875,0.04549504816532135,2.2381913661956787,-0.18282292783260345
1768580187235861500,6.004861572265625,0.04257972165942192,2.072294235229492,-0.08706867694854736
1768580187245834500,6.01483447265625,0.03997887670993805,1.8698500394821167,0.007450636476278305
1768580187255808500,6.02480859375,0.016284506767988205,1.6877825260162354,0.04412411153316498
1768580187265781500,6.034781494140625,-0.0065339915454387665,1.5909638404846191,0.007206303998827934
1768580187275754500,6.04475439453125,-0.020046330988407135,1.5798357725143433,-0.05386650562286377
1768580187285728500,6.054728515625,-0.045625459402799606,1.6024510860443115,-0.09578705579042435
1768580187295701500,6.064701416015625,-0.06905220448970795,1.61150062084198,-0.1479373425245285
1768580187305675500,6.074675537109375,-0.08586021512746811,1.5763205289840698,-0.1953970044851303
1768580187315648500,6.0846484375,-0.0781906396150589,1.5251401662826538,-0.24177731573581696
1768580187325622500,6.09462255859375,-0.05219712853431702,1.486290454864502,-0.2528137266635895
1768580187335595500,6.104595458984375,-0.038167618215084076,1.4286725521087646,-0.20969514548778534
1768580187345568500,6.114568603515625,-0.019694337621331215,1.4102312326431274,-0.1510331630706787
1768580187355542500,6.12454248046875,0.002334974240511656,1.4721935987472534,-0.07383229583501816
1768580187365515500,6.134515625,0.0056061348877847195,1.5252670049667358,0.03352159261703491
1768580187375489500,6.144489501953125,0.005952893290668726,1.5478070974349976,0.14003711938858032
1768580187385462500,6.154462646484375,0.034761637449264526,1.5986229181289673,0.21195551753044128
1768580187395435500,6.164435546875,0.05306302756071091,1.6515904664993286,0.21512621641159058
1768580187405409500,6.174409423828125,0.05477410554885864,1.5803875923156738,0.15990236401557922
1768580187415382300,6.18438232421875,0.05060187727212906,1.4717981815338135,0.08572341501712799
1768580187425356300,6.194356201171875,0.03937399014830589,1.3926423788070679,0.03482641279697418
1768580187435329500,6.20432958984375,0.04336032271385193,1.3345413208007812,0.008854666724801064
1768580187445303600,6.214303466796875,0.05286967381834984,1.272026777267456,0.012370306998491287
1768580187455276500,6.224276611328125,0.06559146195650101,1.1898149251937866,0.015773892402648926
1768580187465249500,6.23424951171875,0.08013205975294113,1.1246135234832764,0.023119423538446426
1768580187475223600,6.2442236328125,0.0912933275103569,1.0725693702697754,0.05656016618013382
1768580187485196500,6.254196533203125,0.09425902366638184,1.0478062629699707,0.09964851289987564
1768580187495170600,6.264170654296875,0.09019039571285248,1.0168668031692505,0.11843415349721909
1768580187505143300,6.274143310546875,0.08075109124183655,0.9374024868011475,0.13289910554885864
1768580187515117300,6.284117431640625,0.07939594984054565,0.8475201725959778,0.13307562470436096
1768580187525090600,6.294090576171875,0.08371239900588989,0.7875908017158508,0.10139065980911255
1768580187535063600,6.3040634765625,0.075176902115345,0.7247682213783264,0.06100139021873474
1768580187545037600,6.31403759765625,0.0568077489733696,0.6629080772399902,0.03619590774178505
1768580187555010600,6.324010498046875,0.06184624135494232,0.6499564051628113,0.030273957177996635
1768580187564984600,6.333984619140625,0.08358456194400787,0.6435970067977905,0.02609199471771717
1768580187574957600,6.34395751953125,0.10025175660848618,0.6089441776275635,0.037688225507736206
1768580187584930300,6.353930419921875,0.10953154414892197,0.5616562962532043,0.06657341122627258
1768580187594904300,6.363904296875,0.10154018551111221,0.5434672832489014,0.061440207064151764
1768580187604877600,6.373877685546875,0.08579344302415848,0.4866809546947479,0.021384932100772858
1768580187614851600,6.3838515625,0.06770063191652298,0.39177459478378296,-0.01869543455541134
1768580187624824600,6.393824462890625,0.043850697576999664,0.3031296730041504,-0.03652423620223999
1768580187634798600,6.403798583984375,0.02618500404059887,0.2137058973312378,-0.058287784457206726
1768580187644771600,6.413771484375,0.019960930570960045,0.1295076608657837,-0.05445895716547966
1768580187654744600,6.42374462890625,0.02597082406282425,0.051724791526794434,-0.02900116704404354
1768580187664718600,6.433718505859375,0.045009762048721313,-0.015821494162082672,-0.014977228827774525
1768580187674691600,6.443691650390625,0.0562012642621994,-0.08732860535383224,-0.015662001445889473
1768580187684665600,6.45366552734375,0.05998188629746437,-0.16179458796977997,-0.022729497402906418
1768580187694638800,6.463638916015625,0.05477635934948921,-0.207733154296875,-0.02562135085463524
1768580187704611600,6.473611572265625,0.048949629068374634,-0.2566663324832916,-0.044559888541698456
1768580187714585600,6.483585693359375,0.03981743007898331,-0.327262818813324,-0.06462744623422623
1768580187724558600,6.49355859375,0.03396220505237579,-0.40649959444999695,-0.06575848907232285
1768580187734532600,6.50353271484375,0.024245478212833405,-0.48597452044487,-0.049837544560432434
1768580187744505600,6.513505615234375,0.00793574657291174,-0.5757896304130554,-0.044119738042354584
1768580187754479600,6.523479736328125,-0.0006561283953487873,-0.7244656682014465,-0.06357678771018982
1768580187764452600,6.53345263671875,0.002485602628439665,-0.9078083038330078,-0.07214764505624771
1768580187774425600,6.543425537109375,0.0044367434456944466,-1.0286710262298584,-0.052835579961538315
1768580187784399600,6.553399658203125,0.01868358999490738,-1.0672663450241089,-0.027267633005976677
1768580187794372600,6.56337255859375,0.0316031314432621,-1.0105135440826416,0.0014851007144898176
1768580187804346600,6.5733466796875,0.031500063836574554,-0.8792505264282227,0.0072503117844462395
1768580187814319600,6.583319580078125,0.01932939887046814,-0.74393630027771,-0.015108034014701843
1768580187824292600,6.593292724609375,0.0030484292656183243,-0.6044471263885498,-0.0452217273414135
1768580187834266600,6.6032666015625,-0.012157300487160683,-0.5414661765098572,-0.06155908480286598
1768580187844239600,6.613239501953125,-0.008068549446761608,-0.5692937970161438,-0.04539582505822182
1768580187854213600,6.623213623046875,0.001416375394910574,-0.598334550857544,0.040952008217573166
1768580187864186600,6.6331865234375,0.016411036252975464,-0.6256692409515381,0.14671066403388977
1768580187874160600,6.64316064453125,0.04012106731534004,-0.6426897644996643,0.2203221321105957
1768580187884133600,6.653133544921875,0.050193410366773605,-0.6563565731048584,0.22860535979270935
1768580187894106600,6.663106689453125,0.0539204441010952,-0.7420010566711426,0.21534878015518188
1768580187904080600,6.67308056640625,0.06564740836620331,-0.8983704447746277,0.2198822796344757
1768580187914053600,6.6830537109375,0.049446940422058105,-1.0065171718597412,0.2532731592655182
1768580187924027600,6.693027587890625,0.020445117726922035,-1.0221531391143799,0.2907606065273285
1768580187934000600,6.703000732421875,-0.0072241369634866714,-0.9882212281227112,0.28601762652397156
1768580187943974700,6.712974609375,-0.026561617851257324,-0.9206714630126953,0.27146556973457336
1768580187953947600,6.72294775390625,-0.036486875265836716,-0.8277525305747986,0.2781883776187897
1768580187963920600,6.732920654296875,-0.03504876792430878,-0.7236522436141968,0.2863166034221649
1768580187973894700,6.742894775390625,-0.014514708891510963,-0.6528221368789673,0.28668680787086487
1768580187983867600,6.75286767578125,0.0087594548240304,-0.7009920477867126,0.3415396809577942
1768580187993841700,6.762841552734375,0.015539308078587055,-0.8192815780639648,0.4396832585334778
1768580188003814700,6.772814697265625,0.0019531920552253723,-0.8756316304206848,0.481581449508667
1768580188013787400,6.782787353515625,-0.019906651228666306,-0.8906166553497314,0.45587068796157837
1768580188023761400,6.792761474609375,-0.036992162466049194,-0.8687582015991211,0.40620967745780945
1768580188033734700,6.802734619140625,-0.04938547685742378,-0.8210819363594055,0.37210318446159363
1768580188043708700,6.812708740234375,-0.05636109039187431,-0.7461733222007751,0.3537859618663788
1768580188053681700,6.822681640625,-0.0421333834528923,-0.6621592044830322,0.3306942880153656
1768580188063655700,6.83265576171875,-0.02039906196296215,-0.5737934112548828,0.31759658455848694
1768580188073628700,6.842628662109375,-0.004276825115084648,-0.5077667236328125,0.3206646740436554
1768580188083601700,6.8526015625,0.01737760379910469,-0.45886629819869995,0.3308262228965759
1768580188093575700,6.86257568359375,0.03360588848590851,-0.4354798495769501,0.33819296956062317
1768580188103548400,6.87254833984375,0.0446646623313427,-0.4851302206516266,0.34456512331962585
1768580188113522400,6.8825224609375,0.05482476204633713,-0.5601587891578674,0.37325435876846313
1768580188123495700,6.89249560546875,0.05569534748792648,-0.5762940645217896,0.4064916968345642
1768580188133469700,6.9024697265625,0.04674720764160156,-0.5572357773780823,0.40639182925224304
1768580188143442700,6.912442626953125,0.047424450516700745,-0.5707574486732483,0.37193426489830017
1768580188153415700,6.922415771484375,0.055338628590106964,-0.5964545607566833,0.3506845533847809
1768580188163389700,6.9323896484375,0.06446900963783264,-0.5980284810066223,0.3445616662502289
1768580188173362700,6.94236279296875,0.07530525326728821,-0.558804988861084,0.3244197964668274
1768580188183336700,6.952336669921875,0.08395680040121078,-0.5091085433959961,0.28111252188682556
1768580188193309400,6.962309326171875,0.08098973333835602,-0.48515263199806213,0.23729808628559113
1768580188203282700,6.97228271484375,0.07345537841320038,-0.5082777142524719,0.22504834830760956
1768580188213256700,6.982256591796875,0.08313119411468506,-0.6196081638336182,0.26769354939460754
1768580188223229700,6.992229736328125,0.0923454686999321,-0.7644689083099365,0.38750913739204407
1768580188233203700,7.00220361328125,0.07558803260326385,-0.8469271063804626,0.5293092727661133
1768580188243176700,7.0121767578125,0.08468592166900635,-0.8838834762573242,0.6276145577430725
1768580188253150700,7.022150634765625,0.10876306146383286,-0.9500565528869629,0.6578069925308228
1768580188263123500,7.03212353515625,0.13419944047927856,-1.0199439525604248,0.622299313545227
1768580188273096400,7.042096435546875,0.15569950640201569,-1.0356370210647583,0.5669769048690796
1768580188283070500,7.052070556640625,0.1681111752986908,-1.0107157230377197,0.4883524477481842
1768580188293043700,7.062043701171875,0.1625366061925888,-0.9507496356964111,0.39013853669166565
1768580188303017700,7.072017822265625,0.1497153490781784,-0.8704862594604492,0.29209640622138977
1768580188312990700,7.08199072265625,0.13985784351825714,-0.7731063961982727,0.2276107221841812
1768580188322964700,7.09196484375,0.11691391468048096,-0.6771907806396484,0.19066494703292847
1768580188332937700,7.101937744140625,0.1008683443069458,-0.6754891872406006,0.16889607906341553
1768580188342910500,7.111910400390625,0.10036234557628632,-0.7679088711738586,0.1957937330007553
1768580188352884500,7.121884521484375,0.10972356051206589,-0.8372986316680908,0.24562428891658783
1768580188362857500,7.131857421875,0.12479598820209503,-0.9150762557983398,0.2900136113166809
1768580188372831500,7.14183154296875,0.15826964378356934,-1.0361852645874023,0.3523159325122833
1768580188382804700,7.1518046875,0.18909041583538055,-1.0989354848861694,0.419026255607605
1768580188392777700,7.16177783203125,0.16969577968120575,-1.0649844408035278,0.44561660289764404
1768580188402751700,7.171751708984375,0.1461251974105835,-0.9790703058242798,0.42483916878700256
1768580188412724700,7.181724853515625,0.1353316754102707,-0.9111464023590088,0.3821633458137512
1768580188422698800,7.19169873046875,0.1335446983575821,-0.8910909295082092,0.3948410451412201
1768580188432671500,7.20167138671875,0.13175852596759796,-0.8798606395721436,0.48083624243736267
1768580188442645500,7.2116455078125,0.11274728178977966,-0.7868539690971375,0.5901792049407959
1768580188452618500,7.221618408203125,0.08907964825630188,-0.6373962163925171,0.6647961735725403
1768580188462591700,7.231591796875,0.08537252247333527,-0.531683087348938,0.6921740174293518
1768580188472565800,7.241565673828125,0.12269129604101181,-0.5106337070465088,0.702006995677948
1768580188482538800,7.251538818359375,0.1829248070716858,-0.5928961038589478,0.7229450345039368
1768580188492512800,7.2615126953125,0.24117442965507507,-0.6770321130752563,0.7458556294441223
1768580188502485500,7.271485595703125,0.2690329849720001,-0.6795229315757751,0.7271016240119934
1768580188512459500,7.28145947265625,0.2781817615032196,-0.6416763663291931,0.659498929977417
1768580188522432500,7.2914326171875,0.27601954340934753,-0.5864288210868835,0.5873984098434448
1768580188532405500,7.301405517578125,0.24949824810028076,-0.5089412331581116,0.535284698009491
1768580188542379500,7.311379638671875,0.23254136741161346,-0.4619908034801483,0.5320976972579956
1768580188552352800,7.321352783203125,0.23439493775367737,-0.4161868095397949,0.5479341745376587
1768580188562326800,7.331326904296875,0.22521474957466125,-0.3716638386249542,0.5664948225021362
1768580188572299800,7.3412998046875,0.2242830991744995,-0.384253591299057,0.5933895111083984
1768580188582273800,7.351273681640625,0.20618665218353271,-0.3383561372756958,0.6410321593284607
1768580188592246500,7.36124658203125,0.16706691682338715,-0.25925055146217346,0.6613622307777405
1768580188602219500,7.371219482421875,0.16221728920936584,-0.22958429157733917,0.6204520463943481
1768580188612193500,7.381193603515625,0.16921856999397278,-0.2278539389371872,0.5272481441497803
1768580188622166500,7.39116650390625,0.16390930116176605,-0.20203405618667603,0.4043844938278198
1768580188632140500,7.401140625,0.1660316288471222,-0.18940888345241547,0.2941031754016876
1768580188642113800,7.41111376953125,0.1650390625,-0.16963012516498566,0.24082452058792114
1768580188652091000,7.4210908203125,0.1455514281988144,-0.14960259199142456,0.21612051129341125
1768580188662063900,7.43106396484375,0.1153397262096405,-0.13049015402793884,0.18350903689861298
1768580188672036900,7.441036865234375,0.09605592489242554,-0.12169623374938965,0.13875441253185272
1768580188682011000,7.451010986328125,0.08600622415542603,-0.17436397075653076,0.12210351973772049
1768580188691984000,7.46098388671875,0.07181060314178467,-0.2368602752685547,0.18632186949253082
1768580188701958000,7.4709580078125,0.03855092078447342,-0.1801956743001938,0.3480047583580017
1768580188711930600,7.4809306640625,-0.0027052173390984535,-0.0634966567158699,0.5036849975585938
1768580188721904600,7.490904541015625,-0.010041427798569202,0.0037580099888145924,0.5788396596908569
1768580188731878000,7.5008779296875,0.01677417755126953,0.010058751329779625,0.5778175592422485
1768580188741851000,7.510850830078125,0.052183300256729126,0.012803138233721256,0.5286915898323059
1768580188751825000,7.520824951171875,0.0827966034412384,-0.013988794758915901,0.4727438688278198
1768580188761798000,7.5307978515625,0.10721646249294281,-0.059677187353372574,0.4254935085773468
1768580188771772000,7.54077197265625,0.11304512619972229,-0.10426574945449829,0.4122686982154846
1768580188781744600,7.55074462890625,0.11118890345096588,-0.13868311047554016,0.41915056109428406
1768580188791718700,7.56071875,0.10261020809412003,-0.16646015644073486,0.44654950499534607
1768580188801691600,7.570691650390625,0.1059146597981453,-0.16764526069164276,0.4795553982257843
1768580188811665000,7.580664794921875,0.1144600659608841,-0.15136802196502686,0.5653101801872253
1768580188821639000,7.590638916015625,0.10639601945877075,-0.20784540474414825,0.7215881943702698
1768580188831612000,7.60061181640625,0.09424348175525665,-0.26118558645248413,0.9302170276641846
1768580188841586000,7.6105859375,0.0904276967048645,-0.2656375765800476,1.1038525104522705
1768580188851559000,7.620558837890625,0.0685247853398323,-0.16615523397922516,1.1783274412155151
1768580188861533000,7.630532958984375,0.06352683156728745,-0.046378232538700104,1.1335309743881226
1768580188871505700,7.640505615234375,0.08847808092832565,0.05951647460460663,1.0246000289916992
1768580188881479000,7.65047900390625,0.09101767092943192,0.2561720013618469,0.9114332795143127
1768580188891452700,7.66045263671875,0.0825633779168129,0.41651830077171326,0.8076827526092529
1768580188901426000,7.670426025390625,0.10393045097589493,0.41563680768013,0.6947506070137024
1768580188911400000,7.68039990234375,0.1474050134420395,0.32172808051109314,0.5806485414505005
1768580188921373000,7.690373046875,0.17981195449829102,0.21080556511878967,0.4873788058757782
1768580188931347000,7.700346923828125,0.20747309923171997,0.028762076050043106,0.4624314606189728
1768580188941320000,7.71031982421875,0.21464897692203522,-0.12118560820817947,0.5220170617103577
1768580188951292700,7.720292724609375,0.17253448069095612,-0.15384335815906525,0.5828559994697571
1768580188961266700,7.7302666015625,0.118355393409729,-0.13254712522029877,0.5764753222465515
1768580188971239700,7.74023974609375,0.05680015683174133,-0.0772700309753418,0.5003928542137146
1768580188981213700,7.750213623046875,0.03494918346405029,-0.059146683663129807,0.3774418532848358
1768580188991187000,7.76018701171875,0.04064684733748436,-0.09970495104789734,0.24506200850009918
1768580189001161000,7.770160888671875,0.04769836366176605,-0.1075250580906868,0.12745068967342377
1768580189011134000,7.780134033203125,0.04830603674054146,-0.06874110549688339,0.044490665197372437
1768580189021106700,7.790106689453125,0.03924143314361572,-0.024029286578297615,-0.0027434234507381916
1768580189031080700,7.800080810546875,0.0314791239798069,0.003416195046156645,-0.050844233483076096
1768580189041053700,7.8100537109375,0.021646467968821526,0.0007122871465981007,-0.11160771548748016
1768580189051027700,7.82002783203125,0.017992688342928886,-0.023467138409614563,-0.15869301557540894
1768580189061000700,7.830000732421875,0.007147497031837702,-0.05084523186087608,-0.1850588470697403
1768580189070974700,7.839974609375,-0.013390397652983665,-0.07537813484668732,-0.16428107023239136
1768580189080948000,7.849947998046875,-0.04302632063627243,-0.0717940479516983,-0.12766793370246887
1768580189090922000,7.859921875,-0.06648967415094376,-0.08126409351825714,-0.10441220551729202
1768580189100895000,7.86989501953125,-0.07349538803100586,-0.15851226449012756,-0.10914144665002823
1768580189110867700,7.87986767578125,-0.07878109812736511,-0.18662862479686737,-0.12775583565235138
1768580189120841700,7.889841796875,-0.07801836729049683,-0.18135076761245728,-0.17341811954975128
1768580189130814700,7.899814697265625,-0.07093069702386856,-0.18595050275325775,-0.240304633975029
1768580189140788700,7.909788818359375,-0.0671713799238205,-0.15653643012046814,-0.30881577730178833
1768580189150761700,7.91976171875,-0.05859040096402168,-0.11333728581666946,-0.37686407566070557
1768580189160735700,7.92973583984375,-0.050371356308460236,-0.0782858207821846,-0.4407050907611847
1768580189170709000,7.939708984375,-0.033297207206487656,-0.029589692130684853,-0.509501039981842
1768580189180683000,7.94968310546875,-0.02266640029847622,-0.014939909800887108,-0.5981294512748718
1768580189190656000,7.959656005859375,-0.015606703236699104,-0.026047633960843086,-0.6941530704498291
1768580189200628700,7.969628662109375,-0.030975541099905968,-0.06481340527534485,-0.7735872268676758
1768580189210602800,7.979602783203125,-0.04647834599018097,-0.10369957238435745,-0.8229014873504639
1768580189220575700,7.98957568359375,-0.05577464401721954,-0.10778538882732391,-0.8290254473686218
1768580189230549800,7.9995498046875,-0.08855312317609787,-0.11568570137023926,-0.8318297863006592
1768580189240522800,8.009522705078124,-0.10125640034675598,-0.13115094602108002,-0.8296222686767578
1768580189250496800,8.019496826171874,-0.11150741577148438,-0.18088890612125397,-0.8036670684814453
1768580189260470000,8.029469970703126,-0.1410466581583023,-0.1701156198978424,-0.7613095045089722
1768580189270444000,8.039444091796875,-0.15332776308059692,-0.09887825697660446,-0.7345011234283447
1768580189280416800,8.049416748046875,-0.1670963168144226,-0.03497783839702606,-0.7133620381355286
1768580189290389800,8.0593896484375,-0.168512225151062,0.0330648273229599,-0.71794593334198
1768580189300363800,8.06936376953125,-0.15361610054969788,0.07496434450149536,-0.7688514590263367
1768580189310336800,8.079336669921876,-0.13324201107025146,0.0885968953371048,-0.8445440530776978
1768580189320310800,8.089310791015626,-0.11109889298677444,0.09748359024524689,-0.9263765811920166
1768580189330283800,8.09928369140625,-0.0908636599779129,0.08016959577798843,-1.0114595890045166
1768580189340257800,8.1092578125,-0.07975348085165024,-0.014034932479262352,-1.07954740524292
1768580189350231000,8.11923095703125,-0.058788880705833435,-0.13233274221420288,-1.0647878646850586
1768580189360205000,8.129205078125,-0.0626339539885521,-0.21167683601379395,-0.974937379360199
1768580189370177800,8.139177734375,-0.08512187004089355,-0.22874057292938232,-0.8621888160705566
1768580189380150800,8.14915087890625,-0.09664697200059891,-0.21735449135303497,-0.7672194242477417
1768580189390124800,8.159124755859375,-0.11590909212827682,-0.1731172651052475,-0.7169822454452515
1768580189400097800,8.169097900390625,-0.10892761498689651,-0.12761236727237701,-0.7088835835456848
1768580189410071800,8.17907177734375,-0.0925334244966507,-0.140914186835289,-0.748091459274292
1768580189420044800,8.189044921875,-0.06514520943164825,-0.17038685083389282,-0.8014358878135681
1768580189430018800,8.199018798828124,-0.043728940188884735,-0.2750474214553833,-0.8494879007339478
1768580189439991800,8.20899169921875,-0.023826871067285538,-0.39938855171203613,-0.8485299348831177
1768580189449965800,8.2189658203125,-0.021726025268435478,-0.42168572545051575,-0.8017424941062927
1768580189459938800,8.228938720703125,-0.040056295692920685,-0.38936907052993774,-0.7531792521476746
1768580189469912800,8.238912841796875,-0.06473952531814575,-0.33004894852638245,-0.7361925840377808
1768580189479885800,8.2488857421875,-0.08028359711170197,-0.2579023241996765,-0.7455664277076721
1768580189489858800,8.25885888671875,-0.0703544095158577,-0.17849555611610413,-0.758841335773468
1768580189499832800,8.268832763671876,-0.05514110252261162,-0.12073798477649689,-0.7671504020690918
1768580189509805800,8.278805908203125,-0.028294160962104797,-0.0855683907866478,-0.7737583518028259
1768580189519779800,8.28877978515625,-0.010726617649197578,-0.09403937309980392,-0.7941057085990906
1768580189529752800,8.2987529296875,0.006380671635270119,-0.19231757521629333,-0.8084498047828674
1768580189539726800,8.308726806640625,0.022769499570131302,-0.2714536786079407,-0.7896979451179504
1768580189549699800,8.318699951171874,0.01759929582476616,-0.2930443286895752,-0.7512413263320923
1768580189559673900,8.328673828125,-0.009721007198095322,-0.317825585603714,-0.7218469381332397
1768580189569646800,8.338646728515625,-0.02553175576031208,-0.3408573865890503,-0.7160629630088806
1768580189579620900,8.348620849609375,-0.018170246854424477,-0.3356570303440094,-0.7290634512901306
1768580189589593900,8.35859375,-0.011078039184212685,-0.3363501727581024,-0.7059096693992615
1768580189599566800,8.36856689453125,-0.003173243720084429,-0.30369263887405396,-0.6599568128585815
1768580189609540900,8.378540771484374,-0.003384836483746767,-0.2559846341609955,-0.6734388470649719
1768580189619513900,8.388513916015626,0.013209853321313858,-0.24915973842144012,-0.8166974782943726
1768580189629487900,8.39848779296875,0.05253222584724426,-0.24281102418899536,-1.0173264741897583
1768580189639460900,8.4084609375,0.07121376693248749,-0.2329123318195343,-1.2160366773605347
1768580189649435000,8.418434814453125,0.08445118367671967,-0.22604960203170776,-1.3745311498641968
1768580189659404300,8.428404296875,0.08079253137111664,-0.20651638507843018,-1.4851336479187012
1768580189669378300,8.43837841796875,0.06142187863588333,-0.18286378681659698,-1.539520502090454
1768580189679351300,8.448351318359375,0.033351361751556396,-0.1372949630022049,-1.5710060596466064
1768580189689324000,8.458323974609375,-0.0010780533775687218,-0.1562478244304657,-1.581201434135437
1768580189699298000,8.468298095703124,0.008203862234950066,-0.22786502540111542,-1.4918137788772583
1768580189709271300,8.478271240234376,0.024871384724974632,-0.3123214542865753,-1.2726385593414307
1768580189719245300,8.488245361328126,0.02660803310573101,-0.3763555586338043,-1.0377651453018188
1768580189729218300,8.49821826171875,0.025432035326957703,-0.38069021701812744,-0.896478533744812
1768580189739192300,8.5081923828125,0.03812412917613983,-0.3224868178367615,-0.8694032430648804
1768580189749165300,8.518165283203125,0.07145606726408005,-0.2946943938732147,-0.9326587319374084
1768580189759139300,8.528139404296875,0.11632207036018372,-0.3098869323730469,-1.0457152128219604
1768580189769112300,8.5381123046875,0.13448932766914368,-0.387057363986969,-1.1820743083953857
1768580189779086300,8.54808642578125,0.1275632530450821,-0.46357905864715576,-1.2726500034332275
1768580189789059000,8.55805908203125,0.12796886265277863,-0.47646045684814453,-1.1880791187286377
1768580189799032300,8.5680322265625,0.10928013175725937,-0.4439624547958374,-0.9184620976448059
1768580189809006300,8.57800634765625,0.05797317251563072,-0.3899674415588379,-0.6208131313323975
1768580189818979300,8.587979248046874,0.01999969221651554,-0.3478836417198181,-0.4336453378200531
1768580189828953300,8.597953369140624,0.004913977347314358,-0.32041701674461365,-0.3804838955402374
1768580189838926300,8.60792626953125,0.004621295724064112,-0.2583576440811157,-0.39172670245170593
1768580189848900400,8.617900390625,-0.00010509742423892021,-0.15789064764976501,-0.44706296920776367
1768580189858873000,8.627873046875,-0.005123557988554239,-0.10559254884719849,-0.5576837658882141
1768580189868847000,8.63784716796875,-0.000904750544577837,-0.10523757338523865,-0.6647100448608398
1768580189878820000,8.647820068359374,0.0014268471859395504,-0.08764392137527466,-0.725459635257721
1768580189888794000,8.657794189453124,-0.010762708261609077,-0.09005782008171082,-0.7530369758605957
1768580189898767400,8.667767333984376,0.005217181518673897,-0.13986946642398834,-0.7073317170143127
1768580189908740400,8.677740234375,0.03777993097901344,-0.1905057281255722,-0.556689441204071
1768580189918714400,8.68771435546875,0.05300468951463699,-0.24373085796833038,-0.38869431614875793
1768580189928687400,8.697687255859375,0.043873924762010574,-0.2537851929664612,-0.305814266204834
1768580189938661400,8.707661376953125,0.026416372507810593,-0.20559823513031006,-0.3120178282260895
1768580189948634000,8.717634033203124,0.011377701535820961,-0.13375432789325714,-0.359155535697937
1768580189958608100,8.727608154296876,-0.0007926789112389088,-0.04127207398414612,-0.42776015400886536
1768580189968581000,8.7375810546875,-0.02030305750668049,0.04175790399312973,-0.4973950982093811
1768580189978555100,8.74755517578125,-0.04045519605278969,0.08727798610925674,-0.5671877264976501
1768580189988528000,8.757528076171875,-0.032074183225631714,0.07942716032266617,-0.6309458017349243
1768580189998501400,8.76750146484375,-0.01832960918545723,0.04712168872356415,-0.6909880638122559
1768580190008475400,8.777475341796874,-0.024712421000003815,-0.01045587845146656,-0.7237865328788757
1768580190018448400,8.787448486328126,-0.030082153156399727,-0.06611674278974533,-0.6773338317871094
1768580190028422400,8.79742236328125,-0.023663299158215523,-0.10011706501245499,-0.564819872379303
1768580190038395100,8.80739501953125,-0.02598717249929905,-0.12099757790565491,-0.43591487407684326
1768580190048369200,8.817369140625,-0.03348900377750397,-0.14452406764030457,-0.32344773411750793
1768580190058342100,8.827342041015624,-0.020119668915867805,-0.15355058014392853,-0.2558457851409912
1768580190068316200,8.837316162109374,0.003502802224829793,-0.12454599142074585,-0.24398870766162872
1768580190078289200,8.8472890625,0.023054666817188263,-0.08276844024658203,-0.2745034694671631
1768580190088263200,8.85726318359375,0.044172052294015884,-0.04473253712058067,-0.3234167993068695
1768580190098236400,8.867236328125,0.05655015632510185,-0.017326215282082558,-0.3557603359222412
1768580190108209200,8.877209228515625,0.03832481428980827,-0.03721443563699722,-0.3395467698574066
1768580190118183200,8.88718310546875,0.012076431885361671,-0.05596761777997017,-0.2869860827922821
1768580190128156200,8.89715625,-0.0027031213976442814,-0.05092007666826248,-0.22287704050540924
1768580190138130200,8.907130126953126,-0.01742374524474144,-0.031806036829948425,-0.1564367562532425
1768580190148103200,8.917103271484375,-0.0130899203941226,-0.01750866323709488,-0.09419693052768707
1768580190158077200,8.9270771484375,-0.007448546588420868,-0.03581017255783081,-0.09083469212055206
1768580190168050200,8.93705029296875,0.005322519224137068,-0.06336069107055664,-0.16100424528121948
1768580190178024200,8.947024169921875,0.032100338488817215,-0.08717228472232819,-0.2690548002719879
1768580190187997400,8.95699755859375,0.042358964681625366,-0.11459365487098694,-0.36099252104759216
1768580190197970200,8.96697021484375,0.03949606418609619,-0.12117272615432739,-0.4234311580657959
1768580190207944200,8.976944091796875,0.028625424951314926,-0.1427314430475235,-0.4165682792663574
1768580190217917200,8.986917236328125,0.005132349673658609,-0.14747320115566254,-0.32402288913726807
1768580190227891200,8.99689111328125,-0.006098296493291855,-0.11450254172086716,-0.21678565442562103
1768580190237864200,9.0068642578125,-0.013123182579874992,-0.04904764145612717,-0.1591452658176422
1768580190247838200,9.016838134765624,-0.010622687637805939,0.021235227584838867,-0.1813988834619522
1768580190257811200,9.026811279296876,-0.0017333212308585644,0.056966327130794525,-0.26587381958961487
1768580190267785200,9.03678515625,0.02183222770690918,0.05446603149175644,-0.3502887487411499
1768580190277758500,9.046758544921875,0.04724064841866493,0.019719503819942474,-0.39410918951034546
1768580190287731200,9.056731201171875,0.05612644925713539,-0.022611260414123535,-0.35009661316871643
1768580190297705200,9.066705322265625,0.04041939228773117,-0.016465216875076294,-0.22832487523555756
1768580190307678200,9.07667822265625,0.01438090018928051,0.03411182016134262,-0.11056166887283325
1768580190317652200,9.08665234375,0.0011039776727557182,0.08494357764720917,-0.07502924650907516
1768580190327625200,9.096625244140625,0.02065945789217949,0.07829703390598297,-0.10951666533946991
1768580190337599200,9.10659912109375,0.04394454136490822,0.04347779601812363,-0.14820227026939392
1768580190347572200,9.116572265625,0.06242847815155983,0.011410411447286606,-0.14791090786457062
1768580190357546200,9.126546142578125,0.07405078411102295,0.0014893366023898125,-0.12829087674617767
1768580190367519200,9.136519287109374,0.08123087882995605,0.027025418356060982,-0.11129312217235565
1768580190377493200,9.1464931640625,0.10134972631931305,0.051542215049266815,-0.11030455678701401
1768580190387466200,9.15646630859375,0.13719189167022705,0.032645754516124725,-0.14850786328315735
1768580190397439200,9.166439208984375,0.18839702010154724,-0.022341066971421242,-0.1730124056339264
1768580190407413200,9.176413330078125,0.22578756511211395,-0.10095048695802689,-0.11201044917106628
1768580190417386200,9.18638623046875,0.24557192623615265,-0.10373402386903763,0.08430873602628708
1768580190427360300,9.1963603515625,0.23951278626918793,-0.03813988342881203,0.30369800329208374
1768580190437333200,9.206333251953126,0.2606913149356842,-0.014430293813347816,0.43946513533592224
1768580190447307300,9.216307373046876,0.30196431279182434,-0.029039448127150536,0.49948850274086
1768580190457280300,9.2262802734375,0.34081611037254333,-0.08979573845863342,0.49706369638442993
1768580190467254300,9.236254150390625,0.3532930612564087,-0.18021497130393982,0.4802885353565216
1768580190477227300,9.246227294921875,0.3540147542953491,-0.21675433218479156,0.47878462076187134
1768580190487200300,9.2562001953125,0.33966732025146484,-0.2507971525192261,0.4555423855781555
1768580190497174300,9.26617431640625,0.3398154079914093,-0.32188811898231506,0.39605164527893066
1768580190507147300,9.276147216796875,0.3379283547401428,-0.3989141285419464,0.3385220766067505
1768580190517121300,9.286121337890625,0.3137955963611603,-0.4869491755962372,0.30588823556900024
1768580190527094300,9.29609423828125,0.301442950963974,-0.5761047005653381,0.3077246844768524
1768580190537068000,9.306068115234375,0.30433592200279236,-0.655686616897583,0.3242110013961792
1768580190547041300,9.316041259765624,0.29418396949768066,-0.6894672513008118,0.3305952250957489
1768580190557015300,9.326015380859374,0.2877063453197479,-0.6941120624542236,0.3507841229438782
1768580190566988300,9.33598828125,0.2951751947402954,-0.6934685707092285,0.3676884174346924
1768580190576962300,9.34596240234375,0.30136463046073914,-0.6796619892120361,0.3551281690597534
1768580190586935300,9.355935302734375,0.3040643036365509,-0.6673278212547302,0.30391451716423035
1768580190596908300,9.365908203125,0.3099634647369385,-0.6861557960510254,0.24108467996120453
1768580190606882300,9.37588232421875,0.30543088912963867,-0.7348694801330566,0.17780229449272156
1768580190616855000,9.38585498046875,0.2964816093444824,-0.791694700717926,0.12664270401000977
1768580190626829000,9.3958291015625,0.2996342182159424,-0.8501799702644348,0.09586255252361298
1768580190636802300,9.40580224609375,0.2985308766365051,-0.9007912278175354,0.0897708386182785
1768580190646776300,9.4157763671875,0.2913707196712494,-0.9510537981987,0.08799665421247482
1768580190656749000,9.4257490234375,0.2940160632133484,-1.0162527561187744,0.11228308826684952
1768580190666723000,9.43572314453125,0.2824311852455139,-1.0883281230926514,0.1511557251214981
1768580190676696000,9.445696044921876,0.2686519920825958,-1.1477985382080078,0.17622460424900055
1768580190686669000,9.4556689453125,0.2593848407268524,-1.2153303623199463,0.16734129190444946
1768580190696643000,9.46564306640625,0.2560218274593353,-1.2863123416900635,0.13939540088176727
1768580190706616000,9.475615966796875,0.2609107792377472,-1.3168100118637085,0.10440463572740555
1768580190716590000,9.485590087890625,0.25269171595573425,-1.2975494861602783,0.07302594184875488
1768580190726563300,9.495563232421874,0.23397141695022583,-1.2692484855651855,0.045232851058244705
1768580190736537300,9.505537353515624,0.2392551302909851,-1.254673719406128,0.04428529739379883
1768580190746510000,9.515510009765626,0.26496487855911255,-1.2897135019302368,0.07220754027366638
1768580190756484000,9.525484130859375,0.2729743421077728,-1.3231509923934937,0.05960279330611229
1768580190766457000,9.53545703125,0.2631901800632477,-1.3031374216079712,0.05962599068880081
1768580190776430000,9.54543017578125,0.2591610848903656,-1.3055776357650757,0.07268001139163971
1768580190786404000,9.555404052734374,0.26338091492652893,-1.3315002918243408,0.050581902265548706
1768580190796377000,9.565377197265626,0.26213324069976807,-1.3575137853622437,0.0037523473147302866
1768580190806351000,9.57535107421875,0.25289851427078247,-1.3767012357711792,-0.03749440610408783
1768580190816324400,9.585324462890625,0.24028736352920532,-1.3796237707138062,-0.05885109677910805
1768580190826298000,9.595298095703125,0.22835098206996918,-1.3775687217712402,-0.06753862649202347
1768580190836271000,9.60527099609375,0.2393282651901245,-1.372754454612732,-0.08649953454732895
1768580190846245000,9.6152451171875,0.2531287670135498,-1.317670464515686,-0.0976194366812706
1768580190856218000,9.625218017578124,0.2637116312980652,-1.2581418752670288,-0.09181933850049973
1768580190866191000,9.635191162109376,0.27834609150886536,-1.2317945957183838,-0.08922256529331207
1768580190876165000,9.6451650390625,0.3042629063129425,-1.2350088357925415,-0.10153248906135559
1768580190886138000,9.65513818359375,0.3365934491157532,-1.2369211912155151,-0.11139135807752609
1768580190896112000,9.665112060546875,0.3564728796482086,-1.2153421640396118,-0.10937108099460602
1768580190906085000,9.675085205078124,0.3518434762954712,-1.1814044713974,-0.09960596263408661
1768580190916059100,9.68505908203125,0.32729870080947876,-1.1209373474121094,-0.10031649470329285
1768580190926032100,9.6950322265625,0.3222883343696594,-1.0874582529067993,-0.11079465597867966
1768580190936006100,9.705006103515625,0.3250151574611664,-1.082849144935608,-0.15044406056404114
1768580190945979100,9.714979248046875,0.3329451382160187,-1.0730419158935547,-0.20192499458789825
1768580190955952000,9.7249521484375,0.322270929813385,-1.092970371246338,-0.24827758967876434
1768580190965926100,9.734926025390624,0.35520684719085693,-1.2298667430877686,-0.356514036655426
1768580190975899100,9.744899169921876,0.40410780906677246,-1.230857253074646,-0.3954917788505554
1768580190985873200,9.754873046875,0.4011935293674469,-1.2473920583724976,-0.3852054476737976
1768580190995846100,9.76484619140625,0.38255009055137634,-1.2083375453948975,-0.33274543285369873
1768580191005820200,9.774820068359375,0.35098129510879517,-1.099947214126587,-0.272553026676178
1768580191015793200,9.784793212890625,0.3086966872215271,-0.9246504902839661,-0.21374376118183136
1768580191025767200,9.79476708984375,0.26827022433280945,-0.7365022301673889,-0.13768598437309265
1768580191035740200,9.804740234375,0.22394591569900513,-0.5867595672607422,-0.05389893800020218
1768580191045713200,9.814713134765626,0.1951482892036438,-0.5155961513519287,0.0013621528632938862
1768580191055687200,9.824687255859375,0.20818498730659485,-0.5114056468009949,0.022327888756990433
1768580191065660200,9.83466015625,0.24515779316425323,-0.5790860652923584,-0.004435351584106684
1768580191075634000,9.844634033203125,0.30964943766593933,-0.6876417994499207,-0.06588699668645859
1768580191085607200,9.854607177734374,0.36402758955955505,-0.7806177139282227,-0.14069871604442596
1768580191095581000,9.864580810546874,0.4111626148223877,-0.8430107831954956,-0.230058953166008
1768580191105554200,9.87455419921875,0.45622721314430237,-0.8380711078643799,-0.31544873118400574
1768580191115528200,9.884528076171875,0.48800939321517944,-0.7853538393974304,-0.40362438559532166
1768580191125501200,9.894501220703125,0.507561206817627,-0.7091588973999023,-0.4649171829223633
1768580191135474200,9.90447412109375,0.5111820697784424,-0.5909299850463867,-0.47553014755249023
1768580191145448200,9.9144482421875,0.5091676712036133,-0.5024217367172241,-0.43637099862098694
1768580191155421000,9.9244208984375,0.4908084273338318,-0.4813463091850281,-0.3700779974460602
1768580191165395000,9.93439501953125,0.47310373187065125,-0.49107271432876587,-0.29662004113197327
1768580191175368200,9.9443681640625,0.4656010866165161,-0.5248591303825378,-0.24441006779670715
1768580191185342000,9.954342041015625,0.4748934507369995,-0.567253589630127,-0.23307591676712036
1768580191195315200,9.964315185546875,0.4921134412288666,-0.5575013756752014,-0.24526439607143402
1768580191205289200,9.974289306640625,0.4947628080844879,-0.5015033483505249,-0.2634192407131195
1768580191215262200,9.98426220703125,0.503610372543335,-0.42850667238235474,-0.25942397117614746
1768580191225235200,9.994235107421876,0.515574038028717,-0.37522366642951965,-0.24729745090007782
1768580191235209200,10.004209228515625,0.533052384853363,-0.36038586497306824,-0.23763708770275116
1768580191245182000,10.014181884765625,0.5510808229446411,-0.3498929440975189,-0.2188127040863037
1768580191255156000,10.024156005859375,0.5679812431335449,-0.32223841547966003,-0.21457535028457642
1768580191265129200,10.034129150390624,0.5796146988868713,-0.30664846301078796,-0.21560922265052795
1768580191275103000,10.04410302734375,0.5998533964157104,-0.29320719838142395,-0.19146819412708282
1768580191285076200,10.054076171875,0.5862722396850586,-0.2845875322818756,-0.1565515249967575
1768580191295049200,10.06404931640625,0.56560879945755,-0.27692216634750366,-0.13243553042411804
1768580191305023200,10.074023193359375,0.5637446045875549,-0.2779372036457062,-0.1135338693857193
1768580191314996000,10.083995849609375,0.5556858777999878,-0.274440199136734,-0.11718692630529404
1768580191324970000,10.093969970703125,0.5612202286720276,-0.262426495552063,-0.14011593163013458
1768580191334943000,10.10394287109375,0.5902793407440186,-0.2561725974082947,-0.16765807569026947
1768580191344917000,10.1139169921875,0.6175329089164734,-0.2732510566711426,-0.16898036003112793
1768580191354890000,10.123889892578125,0.6250990033149719,-0.2640998959541321,-0.13871434330940247
1768580191364864000,10.133864013671875,0.6091910600662231,-0.2271108776330948,-0.09988413751125336
1768580191374837200,10.143837158203125,0.5849680304527283,-0.18956509232521057,-0.06333810836076736
1768580191384810200,10.153810302734374,0.5603427886962891,-0.1722331941127777,-0.03632943704724312
1768580191394784300,10.1637841796875,0.5463654398918152,-0.1697324812412262,-0.01317991130053997
1768580191404757000,10.173757080078126,0.5350510478019714,-0.18305715918540955,-0.01126054860651493
1768580191414731000,10.18373095703125,0.542555034160614,-0.1859528124332428,-0.009823240339756012
1768580191424704000,10.1937041015625,0.5479797720909119,-0.17576473951339722,0.00214748433791101
1768580191434678000,10.203677978515625,0.5368317365646362,-0.133697971701622,0.0017458798829466105
1768580191444651000,10.213651123046875,0.5321650505065918,-0.0743083730340004,0.0009601996280252934
1768580191454625000,10.223625,0.5233172178268433,-0.018593179062008858,-0.016743430867791176
1768580191464598300,10.233598388671876,0.5340126752853394,0.0016386532224714756,-0.04110526293516159
1768580191474571300,10.2435712890625,0.5473623275756836,0.0013686087913811207,-0.05530497431755066
1768580191484545300,10.253545166015625,0.5419326424598694,-0.00556729082018137,-0.0586264431476593
1768580191494518000,10.26351806640625,0.5258884429931641,-0.007825651206076145,-0.03990122303366661
1768580191504492000,10.273491943359375,0.5096115469932556,0.005496720317751169,-0.012319779023528099
1768580191514465000,10.283465087890624,0.4914919137954712,0.009025141596794128,0.018642930313944817
1768580191524439000,10.29343896484375,0.4753585755825043,-0.02781735733151436,0.04672200232744217
1768580191534412000,10.303412109375,0.47930723428726196,-0.0927010178565979,0.07661997526884079
1768580191544385300,10.31338525390625,0.4868271052837372,-0.13006100058555603,0.08691704273223877
1768580191554359300,10.323359375,0.4906045198440552,-0.1256691813468933,0.07761701941490173
1768580191564332000,10.33333203125,0.497329443693161,-0.08186785876750946,0.076560378074646
1768580191574306000,10.34330615234375,0.49612143635749817,-0.022065242752432823,0.08221479505300522
1768580191584279000,10.353279052734376,0.4978804588317871,0.02164708450436592,0.08493814617395401
1768580191594253000,10.363253173828125,0.4971004128456116,0.0523485392332077,0.07915110141038895
1768580191604226000,10.37322607421875,0.5025579333305359,0.04978378489613533,0.08878301829099655
1768580191614200000,10.383199951171875,0.5029270052909851,0.020022427663207054,0.10152038186788559
1768580191624173000,10.393173095703125,0.50948566198349,0.0022981995716691017,0.13364943861961365
1768580191634146300,10.403146240234374,0.49677199125289917,-0.012050379067659378,0.1760789304971695
1768580191644120300,10.413120361328126,0.4887435734272003,-0.05133404582738876,0.2266274392604828
1768580191654092500,10.423092529296875,0.5011610984802246,-0.09393077343702316,0.26238811016082764
1768580191664066600,10.433066650390625,0.5138899683952332,-0.11938267946243286,0.2744792699813843
1768580191674039600,10.44303955078125,0.5175036191940308,-0.10544528812170029,0.2765682637691498
1768580191684013600,10.453013671875,0.522903561592102,-0.06532547622919083,0.28573477268218994
1768580191693986600,10.462986572265624,0.5206558108329773,-0.020895693451166153,0.27956077456474304
1768580191703959600,10.47295947265625,0.5378413200378418,-0.0010809856466948986,0.24701912701129913
1768580191713933600,10.48293359375,0.5633512139320374,-0.022116228938102722,0.2097037136554718
1768580191723906600,10.492906494140625,0.5754495859146118,-0.051541972905397415,0.18921318650245667
1768580191733880600,10.502880615234375,0.575644850730896,-0.050919059664011,0.19331446290016174
1768580191743853600,10.512853515625,0.5562456250190735,-0.033363308757543564,0.1862918585538864
1768580191753827600,10.52282763671875,0.529304563999176,-0.0033327052369713783,0.17817853391170502
1768580191763800600,10.532800537109376,0.5263782739639282,0.009853510186076164,0.1585540771484375
1768580191773773600,10.542773681640625,0.5433655381202698,-0.009440027177333832,0.12557002902030945
1768580191783747600,10.55274755859375,0.5579548478126526,-0.05021444335579872,0.10782767832279205
1768580191793720600,10.562720458984375,0.5640292763710022,-0.043917130678892136,0.10246806591749191
1768580191803694600,10.572694580078124,0.5545746088027954,-0.0017052863258868456,0.13511061668395996
1768580191813667600,10.58266748046875,0.5125624537467957,0.047941096127033234,0.21647150814533234
1768580191823641600,10.5926416015625,0.4565020203590393,0.09579628705978394,0.3081321716308594
1768580191833614600,10.602614501953125,0.40456265211105347,0.13387389481067657,0.37863776087760925
1768580191843588600,10.612588623046875,0.3828388750553131,0.1310678869485855,0.4037993848323822
1768580191853561600,10.6225615234375,0.40182560682296753,0.09195376187562943,0.3895549178123474
1768580191863534600,10.63253466796875,0.4337008595466614,0.045894794166088104,0.35616931319236755
1768580191873508600,10.642508544921874,0.44323763251304626,0.05260223150253296,0.3243219256401062
1768580191883481600,10.652481689453126,0.4405638873577118,0.10879512876272202,0.31883689761161804
1768580191893455600,10.66245556640625,0.4234943687915802,0.185782328248024,0.32808420062065125
1768580191903428600,10.6724287109375,0.3889372944831848,0.26646900177001953,0.3543054461479187
1768580191913402600,10.682402587890625,0.3635634779930115,0.3261187672615051,0.3763415217399597
1768580191923375600,10.692375732421874,0.3528185188770294,0.3561168313026428,0.38850903511047363
1768580191933348600,10.7023486328125,0.3591262400150299,0.33134597539901733,0.37864628434181213
1768580191943322600,10.712322509765626,0.3863254487514496,0.2817297875881195,0.33661842346191406
1768580191953295400,10.72229541015625,0.4175419509410858,0.25008904933929443,0.2950616776943207
1768580191963269400,10.732269287109375,0.4218980669975281,0.24039016664028168,0.2777308523654938
1768580191973242600,10.74224267578125,0.4062224328517914,0.27264559268951416,0.30350998044013977
1768580191983216600,10.752216552734374,0.3691096901893616,0.338065505027771,0.3622572124004364
1768580191993189600,10.762189697265624,0.3129470944404602,0.395526647567749,0.4364595413208008
1768580192003162600,10.77216259765625,0.2618403732776642,0.4140773117542267,0.49111104011535645
1768580192013136600,10.78213671875,0.2270938605070114,0.39900463819503784,0.5175383687019348
1768580192023109600,10.792109619140625,0.20521387457847595,0.3778937757015228,0.5318384766578674
1768580192033083600,10.802083740234375,0.18890175223350525,0.35885801911354065,0.5398244857788086
1768580192043056400,10.812056396484374,0.17766842246055603,0.34246349334716797,0.5390960574150085
1768580192053030400,10.822030517578124,0.17175035178661346,0.33309102058410645,0.5265296697616577
1768580192063003600,10.832003662109376,0.18060508370399475,0.3009357452392578,0.5076829791069031
1768580192072976600,10.8419765625,0.20507501065731049,0.2964629828929901,0.4992040693759918
1768580192082950700,10.85195068359375,0.2220335304737091,0.325900137424469,0.4958530068397522
1768580192092923600,10.861923583984375,0.2440464198589325,0.35735341906547546,0.4801994860172272
1768580192102897700,10.871897705078124,0.28233495354652405,0.3910287916660309,0.45281392335891724
1768580192112870700,10.88187060546875,0.3051947355270386,0.419338196516037,0.4539439082145691
1768580192122844700,10.8918447265625,0.3095036447048187,0.436833918094635,0.4856870174407959
1768580192132817400,10.9018173828125,0.301228404045105,0.43946510553359985,0.5246623754501343
1768580192142790700,10.911790771484375,0.28025001287460327,0.44481003284454346,0.559609591960907
1768580192152764700,10.9217646484375,0.26675736904144287,0.4420904219150543,0.5923736691474915
1768580192162737700,10.931737548828124,0.24268320202827454,0.4326299726963043,0.6047429442405701
1768580192172711700,10.941711669921874,0.23066222667694092,0.4242583215236664,0.610359787940979
1768580192182684700,10.9516845703125,0.22240664064884186,0.4179365932941437,0.6199440956115723
1768580192192658700,10.96165869140625,0.2043062001466751,0.416828989982605,0.6168950200080872
1768580192202631400,10.97163134765625,0.19062486290931702,0.4308772683143616,0.6207600235939026
1768580192212604400,10.9816044921875,0.17930270731449127,0.4297800660133362,0.6228838562965393
1768580192222578400,10.991578369140624,0.17235486209392548,0.44752275943756104,0.6314719319343567
1768580192232551700,11.0015517578125,0.15529678761959076,0.46065402030944824,0.6441254019737244
1768580192242525700,11.011525634765626,0.1529618203639984,0.4590201675891876,0.6504963636398315
1768580192252498700,11.021498779296875,0.16535750031471252,0.44043663144111633,0.626693844795227
1768580192262472700,11.03147265625,0.18364384770393372,0.4218420386314392,0.5977070927619934
1768580192272445700,11.04144580078125,0.19112733006477356,0.42436483502388,0.5917088985443115
1768580192282419700,11.051419677734375,0.17789462208747864,0.45419785380363464,0.5964130759239197
1768580192292392400,11.061392333984376,0.15861386060714722,0.48343029618263245,0.612821102142334
1768580192302365400,11.071365478515625,0.15103977918624878,0.48372361063957214,0.636712372303009
1768580192312339500,11.08133935546875,0.14372514188289642,0.49800771474838257,0.6675792336463928
1768580192322312700,11.091312744140625,0.1410323828458786,0.5316161513328552,0.686407744884491
1768580192332286700,11.10128662109375,0.14738722145557404,0.5548266172409058,0.6973048448562622
1768580192342259700,11.111259765625,0.16666851937770844,0.5689290165901184,0.6918536424636841
1768580192352233700,11.121233642578124,0.18928994238376617,0.5696566104888916,0.6764832139015198
1768580192362206700,11.131206787109376,0.20574995875358582,0.5662692785263062,0.665952205657959
1768580192372179500,11.141179443359375,0.20783068239688873,0.5615895390510559,0.6618869304656982
1768580192382153500,11.151153564453125,0.21583612263202667,0.5644192695617676,0.6698732376098633
1768580192392126500,11.16112646484375,0.22545838356018066,0.5515727400779724,0.6699078679084778
1768580192402100500,11.1711005859375,0.23230350017547607,0.5361769199371338,0.6615431904792786
1768580192412073700,11.18107373046875,0.23609477281570435,0.519114077091217,0.6661097407341003
1768580192422047500,11.191047607421876,0.2381664514541626,0.5143440961837769,0.6821016073226929
1768580192432020700,11.201020751953125,0.23082198202610016,0.5260164737701416,0.6976600289344788
1768580192441993500,11.210993408203125,0.22172488272190094,0.5323337912559509,0.7066159844398499
1768580192451967500,11.220967529296875,0.23101697862148285,0.5504783391952515,0.706256091594696
1768580192461940500,11.2309404296875,0.23197805881500244,0.583215057849884,0.6965476274490356
1768580192471914500,11.24091455078125,0.24601078033447266,0.6103806495666504,0.685320258140564
1768580192481887500,11.250887451171875,0.27617621421813965,0.6236260533332825,0.6672099828720093
1768580192491861500,11.260861572265625,0.30868276953697205,0.6201705932617188,0.6443928480148315
1768580192501834800,11.270834716796875,0.33577391505241394,0.6058487892150879,0.6270205974578857
1768580192511807700,11.280807861328125,0.3588307797908783,0.5787665843963623,0.6198473572731018
1768580192521781800,11.29078173828125,0.36163386702537537,0.5431479811668396,0.6177991628646851
1768580192531754500,11.30075439453125,0.34193819761276245,0.5100225210189819,0.6214911341667175
1768580192541728500,11.310728515625,0.30664944648742676,0.4870586395263672,0.6464717984199524
1768580192551701500,11.320701416015625,0.26352301239967346,0.4551028311252594,0.6693592667579651
1768580192561675500,11.330675537109375,0.21777595579624176,0.4105319678783417,0.6888219714164734
1768580192571648500,11.3406484375,0.1892537623643875,0.3709030747413635,0.6832370162010193
1768580192581621800,11.350621826171874,0.18022793531417847,0.3561572730541229,0.6686246395111084
1768580192591595800,11.360595703125,0.17353487014770508,0.3694448471069336,0.6544457077980042
1768580192601568800,11.37056884765625,0.16220977902412415,0.428514301776886,0.646693766117096
1768580192611542500,11.38054248046875,0.1604962944984436,0.5141359567642212,0.6264351010322571
1768580192621515500,11.390515625,0.1554020494222641,0.593691349029541,0.5934150218963623
1768580192631489500,11.400489501953125,0.1613938957452774,0.6240130662918091,0.5528055429458618
1768580192641462500,11.410462646484374,0.1704747974872589,0.6231309771537781,0.5249385833740234
1768580192651435500,11.420435546875,0.172034353017807,0.590924859046936,0.5139578580856323
1768580192661409800,11.430409912109376,0.16482101380825043,0.5162361264228821,0.5362540483474731
1768580192671382800,11.4403828125,0.14603160321712494,0.4064129889011383,0.5648958086967468
1768580192681356800,11.450356689453125,0.13336478173732758,0.3242904245853424,0.6020239591598511
1768580192691329800,11.460329833984375,0.12802168726921082,0.30542537569999695,0.6311589479446411
1768580192701302800,11.470302734375,0.12043016403913498,0.309584379196167,0.6434200406074524
1768580192711276800,11.48027685546875,0.11235972493886948,0.33447107672691345,0.6186981797218323
1768580192721249800,11.490249755859375,0.1187836229801178,0.37631142139434814,0.575067937374115
1768580192731223800,11.500223876953125,0.10917387157678604,0.40951892733573914,0.5171177983283997
1768580192741196800,11.51019677734375,0.08253996819257736,0.42516016960144043,0.47055482864379883
1768580192751170800,11.5201708984375,0.054316047579050064,0.4179973304271698,0.4521486759185791
1768580192761143800,11.530143798828124,0.0244654081761837,0.40486466884613037,0.4569200575351715
1768580192771116800,11.54011669921875,-0.002614944241940975,0.3929970860481262,0.4640338718891144
1768580192781090800,11.5500908203125,-0.021723520010709763,0.38132035732269287,0.45867565274238586
1768580192791063800,11.560063720703125,-0.03334875404834747,0.3403864800930023,0.4557429850101471
1768580192801037800,11.570037841796875,-0.02611766755580902,0.2796807289123535,0.44984811544418335
1768580192811010800,11.5800107421875,-0.013264719396829605,0.22379297018051147,0.43731847405433655
1768580192820984800,11.58998486328125,0.0013236124068498611,0.20178906619548798,0.42464637756347656
1768580192830957800,11.599957763671876,-0.006583578884601593,0.21711741387844086,0.4173154830932617
1768580192840930800,11.609930908203125,-0.021035512909293175,0.25193291902542114,0.4169483780860901
1768580192850904800,11.61990478515625,-0.04508918523788452,0.2766773998737335,0.41271793842315674
1768580192860877800,11.6298779296875,-0.06267662346363068,0.29751020669937134,0.3919410705566406
1768580192870851800,11.639851806640625,-0.07114414870738983,0.31214240193367004,0.34249040484428406
1768580192880824800,11.649824951171874,-0.06643310934305191,0.3198276460170746,0.2833934724330902
1768580192890798800,11.659798828125,-0.06512416154146194,0.31559428572654724,0.24295470118522644
1768580192900771800,11.669771728515625,-0.0651218444108963,0.30632680654525757,0.2347749024629593
1768580192910744800,11.679744873046875,-0.06554128974676132,0.2991655766963959,0.24583527445793152
1768580192920718800,11.68971875,-0.07808385789394379,0.2936398983001709,0.2375895380973816
1768580192930691800,11.69969189453125,-0.09877954423427582,0.27902233600616455,0.22166144847869873
1768580192940665600,11.70966552734375,-0.12886059284210205,0.2755855619907379,0.2142343819141388
1768580192950638800,11.719638916015626,-0.15340721607208252,0.2671462595462799,0.20462995767593384
1768580192960612900,11.72961279296875,-0.15779154002666473,0.23987260460853577,0.18464812636375427
1768580192970585900,11.7395859375,-0.1600632220506668,0.21855080127716064,0.167069673538208
1768580192980558800,11.749558837890625,-0.17015346884727478,0.2039106786251068,0.1510484516620636
1768580192990532900,11.759532958984375,-0.1839371919631958,0.18872693181037903,0.1265210062265396
1768580193000505900,11.769505859375,-0.1979442685842514,0.1743098497390747,0.0932721346616745
1768580193010479900,11.77947998046875,-0.2056855410337448,0.1630217730998993,0.06162020191550255
1768580193020452900,11.789452880859375,-0.22539851069450378,0.16688856482505798,0.031108004972338676
1768580193030426600,11.799426513671875,-0.24880743026733398,0.18764151632785797,0.007245547603815794
1768580193040400000,11.80939990234375,-0.27134570479393005,0.21143360435962677,-0.003383757546544075
1768580193050372900,11.819372802734375,-0.303027480840683,0.209865540266037,-0.012060335837304592
1768580193060347000,11.829346923828124,-0.33237501978874207,0.19306372106075287,-0.024300657212734222
1768580193070319900,11.83931982421875,-0.3608013391494751,0.18656107783317566,-0.036525364965200424
1768580193080294000,11.8492939453125,-0.38851743936538696,0.20304161310195923,-0.05906745791435242
1768580193090267000,11.859266845703125,-0.4021941125392914,0.2147001326084137,-0.08792386949062347
1768580193100241000,11.869240966796875,-0.39664480090141296,0.2239585518836975,-0.12689892947673798
1768580193110213600,11.879213623046875,-0.38442036509513855,0.21452856063842773,-0.15586507320404053
1768580193120187000,11.889186767578124,-0.39185285568237305,0.21458940207958221,-0.16769863665103912
1768580193130161000,11.899160888671876,-0.41561010479927063,0.24244606494903564,-0.13531726598739624
1768580193140134000,11.9091337890625,-0.4664984345436096,0.296316921710968,-0.09561092406511307
1768580193150108000,11.91910791015625,-0.5279299020767212,0.33952030539512634,-0.05995199456810951
1768580193160081000,11.929080810546875,-0.605135440826416,0.3999466001987457,-0.023291192948818207
1768580193170055000,11.939054931640625,-0.6823570132255554,0.44759002327919006,0.0177177581936121
1768580193180027600,11.949027587890624,-0.7719681262969971,0.4976775348186493,0.06973819434642792
1768580193190001000,11.9590009765625,-0.8560212254524231,0.5210525989532471,0.1102089211344719
1768580193199974700,11.968974609375,-0.9122836589813232,0.5214880108833313,0.15519839525222778
1768580193209948000,11.978947998046875,-0.9695003628730774,0.5046618580818176,0.19896532595157623
1768580193219922000,11.988921875,-1.0310754776000977,0.47914886474609375,0.23807589709758759
1768580193229895000,11.99889501953125,-1.0899163484573364,0.4796905517578125,0.26355117559432983
1768580193239869000,12.008868896484374,-1.1728360652923584,0.5249229073524475,0.2748584747314453
1768580193249842000,12.018842041015626,-1.2999932765960693,0.5985862612724304,0.2690597176551819
1768580193259816000,12.02881591796875,-1.4461244344711304,0.6650387644767761,0.2617529034614563
1768580193269788700,12.03878857421875,-1.554545521736145,0.7291857600212097,0.2804051339626312
1768580193279761700,12.04876171875,-1.6413549184799194,0.8253610134124756,0.32550886273384094
1768580193289735700,12.058735595703125,-1.7088665962219238,0.9296072721481323,0.35572296380996704
1768580193299709000,12.068708984375,-1.7391295433044434,1.0083039999008179,0.3636784255504608
1768580193309683000,12.078682861328126,-1.734593391418457,1.044453740119934,0.31611916422843933
1768580193319656000,12.088656005859375,-1.7021484375,1.0630393028259277,0.20984752476215363
1768580193329630000,12.0986298828125,-1.630400538444519,1.0664652585983276,0.02706572785973549
1768580193339603000,12.10860302734375,-1.5270335674285889,1.0381828546524048,-0.20999351143836975
1768580193349575700,12.11857568359375,-1.429656982421875,1.0390124320983887,-0.4666106700897217
1768580193359549700,12.1285498046875,-1.3565512895584106,1.0456682443618774,-0.70863276720047
1768580193369522700,12.138522705078126,-1.3170733451843262,1.020015001296997,-0.8933869004249573
1768580193379496700,12.14849658203125,-1.2979121208190918,1.05203378200531,-0.9938088655471802
1768580193389470000,12.158469970703125,-1.2821589708328247,1.125765323638916,-1.0122222900390625
1768580193399444000,12.16844384765625,-1.2720645666122437,1.1607987880706787,-0.9795804619789124
1768580193409417000,12.1784169921875,-1.2524988651275635,1.0840773582458496,-0.9093518853187561
1768580193419391000,12.188390869140624,-1.245833396911621,0.9524930119514465,-0.8146987557411194
1768580193429363700,12.19836376953125,-1.2389845848083496,0.8227049112319946,-0.6936852335929871
1768580193439336700,12.208336669921875,-1.229950189590454,0.7045467495918274,-0.5651116371154785
1768580193449310700,12.218310791015625,-1.2326668500900269,0.67393559217453,-0.45216137170791626
1768580193459283700,12.22828369140625,-1.2585601806640625,0.7152153849601746,-0.36639919877052307
1768580193469257700,12.2382578125,-1.2746696472167969,0.7787438035011292,-0.2961953282356262
1768580193479231000,12.24823095703125,-1.2747539281845093,0.8715091347694397,-0.23245856165885925
1768580193489205000,12.258205078125,-1.254334568977356,0.905859649181366,-0.1570274531841278
1768580193499178000,12.268177978515626,-1.2111657857894897,0.8495949506759644,-0.05181311443448067
1768580193509150700,12.278150634765625,-1.1673029661178589,0.7451590895652771,0.06064365804195404
1768580193519124700,12.288124755859375,-1.1152052879333496,0.6245037317276001,0.14357160031795502
1768580193529097700,12.29809765625,-1.0405200719833374,0.49579185247421265,0.1847589761018753
1768580193539071700,12.30807177734375,-0.9790186882019043,0.3549332320690155,0.1902940720319748
1768580193549044700,12.318044677734376,-0.9176581501960754,0.23073536157608032,0.17229031026363373
1768580193559018800,12.328018798828126,-0.8661829829216003,0.12239720672369003,0.13742849230766296
1768580193568992000,12.337991943359375,-0.8370288014411926,0.0722150057554245,0.10409796237945557
1768580193578965000,12.347965087890625,-0.8095769286155701,0.05205592140555382,0.07900884747505188
1768580193588938800,12.357938720703125,-0.7816534638404846,0.0446118526160717,0.05654881149530411
