time,seconds_elapsed,z,y,x
1761585608155583000,0.0855830078125,0.003043264849111438,0.11119420826435089,0.17021504044532776
1761585608165557000,0.095556884765625,0.014265025965869427,0.09402214735746384,0.21961401402950287
1761585608175529700,0.10552978515625,0.03601003438234329,0.0723181962966919,0.23912014067173004
1761585608185503700,0.115503662109375,0.04798360541462898,0.0334664024412632,0.24092549085617065
1761585608195477800,0.125477783203125,0.051321253180503845,-0.02619750238955021,0.21189692616462708
1761585608205450800,0.13545068359375,0.05622919276356697,-0.07077376544475555,0.16649454832077026
1761585608215424800,0.1454248046875,0.05364405736327171,-0.08276332169771194,0.13441501557826996
1761585608225398800,0.155398681640625,0.04888498783111572,-0.07697760313749313,0.11891275644302368
1761585608235372800,0.165372802734375,0.040176283568143845,-0.05907871201634407,0.11312305182218552
1761585608245345800,0.175345703125,0.032714370638132095,-0.03766423463821411,0.11317791789770126
1761585608255319800,0.18531982421875,0.025232013314962387,0.0019234326900914311,0.11190461367368698
1761585608265293800,0.1952939453125,0.019394896924495697,0.02678084559738636,0.09450218826532364
1761585608275267800,0.205267822265625,0.02049051970243454,0.02379435859620571,0.0588407963514328
1761585608285240800,0.21524072265625,0.02236245572566986,0.022904863581061363,0.019947193562984467
1761585608295214800,0.22521484375,0.024906737729907036,0.02322799153625965,-0.017994539812207222
1761585608305188900,0.23518896484375,0.02396903932094574,0.013773238286376,-0.03531733527779579
1761585608315161900,0.245161865234375,0.023738529533147812,0.012160217389464378,-0.03671557083725929
1761585608325136000,0.255135986328125,0.023952648043632507,0.006372368894517422,-0.028260834515094757
1761585608335109600,0.265109619140625,0.02885596826672554,-0.012081783264875412,-0.012977603822946548
1761585608345083000,0.275082763671875,0.03634131699800491,-0.03295723721385002,0.006827259436249733
1761585608355056600,0.285056640625,0.04501206427812576,-0.049508240073919296,0.03625686466693878
1761585608365030700,0.29503076171875,0.04491192847490311,-0.05453309044241905,0.07449692487716675
1761585608375004700,0.305004638671875,0.03959327191114426,-0.0560750849545002,0.08526153862476349
1761585608384978000,0.31497802734375,0.0336885079741478,-0.06520254164934158,0.06813342124223709
1761585608394952000,0.324951904296875,0.01800648681819439,-0.06088608503341675,0.04250635579228401
1761585608404925700,0.33492578125,0.0016317747067660093,-0.03117399848997593,0.01678953878581524
1761585608414899700,0.344899658203125,-0.0026959427632391453,-0.026481684297323227,-0.005053204949945211
1761585608424873000,0.354873046875,0.003339579328894615,-0.05139954760670662,-0.01373005099594593
1761585608434847000,0.364846923828125,0.00584328081458807,-0.07858559489250183,-0.010263369418680668
1761585608444821000,0.374821044921875,0.00930778682231903,-0.08496812731027603,-0.003813193179666996
1761585608454794000,0.3847939453125,0.010648045688867569,-0.0516337975859642,0.007833771407604218
1761585608464768000,0.39476806640625,0.019282814115285873,-0.014023305848240852,0.022446269169449806
1761585608474742000,0.404741943359375,0.02515028975903988,0.0044036381877958775,0.03854002058506012
1761585608484716000,0.414716064453125,0.02208951860666275,0.00529260141775012,0.05245557054877281
1761585608494688800,0.424688720703125,0.010547498241066933,0.026162251830101013,0.06304022669792175
1761585608504662800,0.434662841796875,-0.005945991259068251,0.0417819581925869,0.07366783916950226
1761585608514636500,0.444636474609375,-0.008795160800218582,0.023443643003702164,0.05857045203447342
1761585608524609500,0.454609619140625,-0.01407833956182003,-0.016733339056372643,0.035251013934612274
1761585608534583600,0.46458349609375,-0.023949580267071724,-0.050379429012537,0.027493465691804886
1761585608544557600,0.4745576171875,-0.039894722402095795,-0.07322561740875244,0.02656189352273941
1761585608554531600,0.484531494140625,-0.04806133359670639,-0.07462713122367859,0.040422432124614716
1761585608564504300,0.49450439453125,-0.03789497911930084,-0.04562211036682129,0.05957482382655144
1761585608574478300,0.504478271484375,-0.016942787915468216,-0.036314062774181366,0.06106925755739212
1761585608584452400,0.514452392578125,0.0020641919691115618,-0.05122190713882446,0.04456005617976189
1761585608594425300,0.52442529296875,0.007085254415869713,-0.044886283576488495,0.029285980388522148
1761585608604399400,0.5343994140625,0.010796901769936085,-0.02740449272096157,0.019114304333925247
1761585608614373400,0.544373291015625,0.009193739853799343,-0.012009002268314362,-0.001718128565698862
1761585608624347400,0.554347412109375,0.010465399362146854,0.00481844786554575,-0.0035501173697412014
1761585608634320400,0.5643203125,-0.0000742936972528696,0.004567599855363369,-0.001162888016551733
1761585608644294400,0.57429443359375,-0.002381390193477273,0.01378320250660181,0.0039850021712481976
1761585608654268400,0.584268310546875,-0.0034863161854445934,0.019790228456258774,0.0047433883883059025
1761585608664241700,0.59424169921875,0.005823296494781971,0.008557280525565147,0.006033157464116812
1761585608674215700,0.604215576171875,0.012011522427201271,0.02497919648885727,0.024912480264902115
1761585608684189400,0.614189453125,0.004910469055175781,0.002072283299639821,0.02968992479145527
1761585608694163500,0.62416357421875,0.0011434440966695547,-0.0343572273850441,0.018755070865154266
1761585608704136700,0.63413671875,-0.012041600421071053,-0.016641881316900253,0.016079925000667572
1761585608714110700,0.64411083984375,-0.03029976226389408,0.03214719891548157,0.024665912613272667
1761585608724084500,0.65408447265625,-0.028095729649066925,0.053488705307245255,0.02497989870607853
1761585608734057500,0.664057373046875,-0.02107272669672966,0.03763875737786293,-0.009949839673936367
1761585608744031500,0.674031494140625,-0.02053716592490673,0.006783905439078808,-0.05339425429701805
1761585608754005500,0.684005615234375,-0.02973226085305214,-0.014008192345499992,-0.08918766677379608
1761585608763979500,0.6939794921875,-0.025854432955384254,-0.024902384728193283,-0.11268074065446854
1761585608773952500,0.703952392578125,-0.011993709951639175,-0.035034894943237305,-0.12492439150810242
1761585608783926500,0.713926513671875,0.003443036926910281,-0.04005229100584984,-0.10398955643177032
1761585608793900500,0.723900634765625,0.017919715493917465,-0.03258451819419861,-0.07391926646232605
1761585608803873500,0.73387353515625,0.021906467154622078,-0.016003677621483803,-0.042768269777297974
1761585608813847600,0.74384765625,0.01965142786502838,0.0006736363284289837,-0.020673532038927078
1761585608823821600,0.753821533203125,0.014195408672094345,0.0011924200225621462,-0.006654917262494564
1761585608833795600,0.763795654296875,0.010453663766384125,-0.016493376344442368,0.013049116358160973
1761585608843768600,0.7737685546875,0.007366527337580919,-0.03430965542793274,0.03670384734869003
1761585608853742600,0.78374267578125,-0.001071849255822599,-0.04190254211425781,0.0641481876373291
1761585608863716600,0.793716552734375,-0.0033437919337302446,-0.04373719170689583,0.08398447930812836
1761585608873689300,0.803689453125,0.0024337766226381063,-0.038021452724933624,0.10301905870437622
1761585608883663400,0.813663330078125,0.009364653378725052,-0.03185117244720459,0.10293836146593094
1761585608893637400,0.823637451171875,0.009810153394937515,-0.035762444138526917,0.09181854128837585
1761585608903611400,0.833611328125,0.007709984667599201,-0.03133946657180786,0.06759549677371979
1761585608913584400,0.84358447265625,-0.0015714638866484165,-0.012076335027813911,0.04831000417470932
1761585608923558400,0.853558349609375,-0.011107711121439934,0.0033660042099654675,0.02411651611328125
1761585608933532400,0.863532470703125,-0.015429580584168434,0.01005183532834053,0.006343161687254906
1761585608943505400,0.87350537109375,-0.013287067413330078,0.017181649804115295,-0.011825723573565483
1761585608953479400,0.8834794921875,-0.010812349617481232,0.02358194813132286,-0.025591231882572174
1761585608963453400,0.893453369140625,-0.01724068634212017,0.02797030471265316,-0.04705710709095001
1761585608973427500,0.903427490234375,-0.020995670929551125,0.02677818201482296,-0.07830048352479935
1761585608983400700,0.913400634765625,-0.020876361057162285,0.0166642963886261,-0.09798896312713623
1761585608993374500,0.92337451171875,-0.022479107603430748,0.020076297223567963,-0.09367220103740692
1761585609003348500,0.933348388671875,-0.021487345919013023,0.026219677180051804,-0.06849654018878937
1761585609013321500,0.943321533203125,-0.012103907763957977,0.019749300554394722,-0.042174164205789566
1761585609023295500,0.95329541015625,0.0011759442277252674,0.024830080568790436,-0.02649294026196003
1761585609033269500,0.96326953125,0.0028161120135337114,0.054266612976789474,-0.01015518605709076
1761585609043243500,0.973243408203125,-0.0005051163025200367,0.06091572716832161,-0.0007614176720380783
1761585609053216500,0.983216552734375,0.000389705877751112,0.04652640223503113,-0.0033654565922915936
1761585609063190500,0.9931904296875,0.00037532486021518707,0.04220648854970932,-0.0033920886926352978
1761585609073164500,1.00316455078125,0.0009110129904001951,0.044204726815223694,-0.004527570679783821
1761585609083137500,1.013137451171875,0.0015392526984214783,0.03930903598666191,-0.0026218132115900517
1761585609093111600,1.023111572265625,-0.0006519659655168653,0.01750469021499157,-0.0009925155900418758
1761585609103085600,1.03308544921875,-0.010529897175729275,-0.00019600882660597563,-0.007684773299843073
1761585609113059600,1.0430595703125,-0.0182536281645298,-0.027838310226798058,-0.022973421961069107
1761585609123032600,1.053032470703125,-0.02299298718571663,-0.04366707056760788,-0.025853365659713745
1761585609133006600,1.063006591796875,-0.02648293972015381,-0.011225189082324505,0.002380862133577466
1761585609142980600,1.072980712890625,-0.022718826308846474,0.021763652563095093,0.0339110903441906
1761585609152953300,1.082953369140625,-0.008249606937170029,0.04797368496656418,0.05661054328083992
1761585609162927400,1.09292724609375,0.0032773534767329693,0.05663268640637398,0.0648927092552185
1761585609172901400,1.1029013671875,0.009330312721431255,0.055181607604026794,0.06421545892953873
1761585609182875400,1.11287548828125,0.005913743749260902,0.04209509864449501,0.03539446368813515
1761585609192848400,1.122848388671875,0.006756228394806385,0.009421898983418941,0.0020870259031653404
1761585609202822400,1.132822509765625,0.010181053541600704,-0.02467881329357624,-0.02399464324116707
1761585609212796400,1.14279638671875,0.010172813199460506,-0.052083130925893784,-0.027424808591604233
1761585609222769400,1.152769287109375,0.004434766247868538,-0.047043897211551666,-0.006568527314811945
1761585609232743400,1.162743408203125,-0.0005061961710453033,-0.022955071181058884,0.022464988753199577
1761585609242717400,1.172717529296875,-0.00816384982317686,0.0011193716200068593,0.04313964024186134
1761585609252691500,1.18269140625,-0.014119085855782032,0.006387693341821432,0.04280800372362137
1761585609262664400,1.19266455078125,-0.01605040952563286,0.006965865846723318,0.03663106635212898
1761585609272638500,1.202638427734375,-0.022056307643651962,0.004714195616543293,0.017802294343709946
1761585609282612500,1.212612548828125,-0.015200264751911163,-0.031181486323475838,0.010210687294602394
1761585609292585700,1.222585693359375,-0.0040290746837854385,-0.006952835246920586,0.0670788362622261
1761585609302559500,1.2325595703125,-0.01890389621257782,0.06227630004286766,0.13782837986946106
1761585609312533500,1.242533447265625,-0.024759070947766304,0.1054145023226738,0.18182499706745148
1761585609322507300,1.25250732421875,-0.023638945072889328,0.09132345020771027,0.19598396122455597
1761585609332480500,1.26248046875,-0.021222377195954323,0.07781561464071274,0.1993490308523178
1761585609342454500,1.27245458984375,-0.02776283584535122,0.08122419565916061,0.1846606284379959
1761585609352428500,1.282428466796875,-0.013105100952088833,0.047648102045059204,0.17052941024303436
1761585609362401500,1.292401611328125,-0.008050154894590378,0.04117156192660332,0.19254761934280396
1761585609372375600,1.30237548828125,-0.008189448155462742,0.06510206311941147,0.21214546263217926
1761585609382349600,1.312349609375,-0.009068290702998638,0.07609239965677261,0.1902391016483307
1761585609392323600,1.322323486328125,-0.015334147959947586,0.10529077053070068,0.17688316106796265
1761585609402296600,1.332296630859375,-0.030309101566672325,0.15377014875411987,0.16461291909217834
1761585609412270600,1.3422705078125,-0.0457020178437233,0.19283613562583923,0.1398685872554779
1761585609422244600,1.35224462890625,-0.03770800679922104,0.1808582991361618,0.0838140994310379
1761585609432217600,1.362217529296875,-0.01771126687526703,0.07529732584953308,0.07787054032087326
1761585609442191600,1.372191650390625,-0.013470982201397419,0.06809747219085693,0.13803134858608246
1761585609452165600,1.38216552734375,-0.041365981101989746,0.16957657039165497,0.2137114405632019
1761585609462139600,1.3921396484375,-0.06620368361473083,0.28486189246177673,0.2353040874004364
1761585609472112400,1.4021123046875,-0.08194589614868164,0.3148496150970459,0.19331508874893188
1761585609482086400,1.41208642578125,-0.08991913497447968,0.21590624749660492,0.08729811757802963
1761585609492060400,1.422060302734375,-0.09364088624715805,0.14427562057971954,-0.0035726791247725487
1761585609502033400,1.432033447265625,-0.04628961533308029,0.15471574664115906,-0.06474149227142334
1761585609512008200,1.44200830078125,0.016178123652935028,0.13553878664970398,-0.11562782526016235
1761585609521982200,1.451982177734375,0.05146181210875511,0.09630563110113144,-0.14875969290733337
1761585609531956200,1.461956298828125,0.06400610506534576,0.07826244086027145,-0.16657641530036926
1761585609541929000,1.471928955078125,0.06287878751754761,0.05363565310835838,-0.1964235156774521
1761585609551903000,1.481903076171875,0.05522638559341431,0.006936948746442795,-0.22024287283420563
1761585609561877000,1.491876953125,0.05249771103262901,-0.0660504475235939,-0.24738182127475739
1761585609571850000,1.50185009765625,0.04514578729867935,-0.12064338475465775,-0.2950076460838318
1761585609581824000,1.511823974609375,0.026025891304016113,-0.15840566158294678,-0.31959420442581177
1761585609591798000,1.521798095703125,0.009017722681164742,-0.17275699973106384,-0.3158193528652191
1761585609601772000,1.53177197265625,-0.009429462254047394,-0.19281938672065735,-0.2776203155517578
1761585609611745000,1.5417451171875,-0.03221125528216362,-0.20659500360488892,-0.21299982070922852
1761585609621719000,1.551718994140625,-0.050101570785045624,-0.19093482196331024,-0.14055252075195312
1761585609631693000,1.561693115234375,-0.061616312712430954,-0.1360044777393341,-0.07056194543838501
1761585609641666000,1.571666015625,-0.053075291216373444,-0.08801724761724472,-0.03513791412115097
1761585609651640000,1.58164013671875,-0.024524450302124023,-0.04763592779636383,-0.006310097873210907
1761585609661614000,1.591614013671875,0.005443568341434002,-0.008977747522294521,0.017225589603185654
1761585609671588000,1.601588134765625,0.020769640803337097,0.03337043896317482,0.02575276419520378
1761585609681561000,1.61156103515625,0.03681332245469093,0.07140997052192688,0.03026389330625534
1761585609691535000,1.62153515625,0.05317573621869087,0.08343876898288727,0.0022022074554115534
1761585609701509000,1.631509033203125,0.06876668334007263,0.06709148734807968,-0.0668487697839737
1761585609711482000,1.641482177734375,0.07599393278360367,0.03292285278439522,-0.12736278772354126
1761585609721456000,1.6514560546875,0.07560058683156967,0.008093403652310371,-0.15106065571308136
1761585609731430100,1.66143017578125,0.06747155636548996,0.020462188869714737,-0.14077234268188477
1761585609741404200,1.671404052734375,0.06851764023303986,0.044399745762348175,-0.12483412027359009
1761585609751377200,1.681377197265625,0.07347899675369263,0.05418001487851143,-0.09052630513906479
1761585609761351200,1.69135107421875,0.06874922662973404,0.07775245606899261,-0.03474373742938042
1761585609771325200,1.7013251953125,0.05821559578180313,0.05850657448172569,0.035306382924318314
1761585609781299200,1.71129931640625,0.06952204555273056,-0.0491061694920063,0.18355683982372284
1761585609791272200,1.721272216796875,0.07943200320005417,-0.0028733951039612293,0.4174276888370514
1761585609801246200,1.73124609375,0.031746767461299896,0.11263961344957352,0.5970145463943481
1761585609811220200,1.74122021484375,-0.03369756415486336,0.07789663970470428,0.6195541620254517
1761585609821193000,1.75119287109375,-0.06329833716154099,-0.05987080931663513,0.5825895071029663
1761585609831167000,1.7611669921875,-0.08172877877950668,-0.15443915128707886,0.5585483312606812
1761585609841141000,1.77114111328125,-0.09046527743339539,-0.20948189496994019,0.5485609173774719
1761585609851114000,1.781114013671875,-0.08369573950767517,-0.24341388046741486,0.5187376141548157
1761585609861088000,1.791087890625,-0.083737812936306,-0.2910362482070923,0.4635246694087982
1761585609871062000,1.80106201171875,-0.09052694588899612,-0.3542857766151428,0.401170015335083
1761585609881036000,1.8110361328125,-0.1024579107761383,-0.37089645862579346,0.3400307595729828
1761585609891009000,1.821009033203125,-0.11702253669500351,-0.34603771567344666,0.2800687551498413
1761585609900983000,1.830983154296875,-0.10877339541912079,-0.31800100207328796,0.21977582573890686
1761585609910957000,1.84095703125,-0.0562012642621994,-0.3146473169326782,0.16234858334064484
1761585609920930000,1.850929931640625,0.0009800002444535494,-0.2992880642414093,0.13637211918830872
1761585609930904000,1.860904052734375,0.01604614593088627,-0.26220202445983887,0.12807807326316833
1761585609940878000,1.870878173828125,0.007106713019311428,-0.1912732571363449,0.11916127800941467
1761585609950852000,1.88085205078125,-0.010450728237628937,-0.13542398810386658,0.1118043065071106
1761585609960825000,1.8908251953125,-0.014886489138007164,-0.11216073483228683,0.11009242385625839
1761585609970798800,1.900798828125,-0.004007160197943449,-0.07949422299861908,0.13506847620010376
1761585609980772900,1.91077294921875,0.01991947740316391,-0.055169180035591125,0.17536211013793945
1761585609990746000,1.92074609375,0.04467292129993439,-0.027421101927757263,0.19378317892551422
1761585610000720100,1.93072021484375,0.033702827990055084,-0.052660148590803146,0.1947096884250641
1761585610010694100,1.940694091796875,-0.0010983420070260763,-0.09756918251514435,0.1850479543209076
1761585610020668000,1.95066796875,-0.03490131348371506,-0.11070522665977478,0.17023491859436035
1761585610030641200,1.96064111328125,-0.06704229861497879,-0.07901392132043839,0.1499236673116684
1761585610040615200,1.970615234375,-0.10430897772312164,-0.03320702165365219,0.1274404674768448
1761585610050589200,1.980589111328125,-0.17968785762786865,-0.07489987462759018,0.12116064876317978
1761585610060563200,1.990563232421875,-0.27680882811546326,-0.2091016173362732,0.09678073972463608
1761585610070536200,2.0005361328125,-0.347114235162735,-0.3333311975002289,0.05842204391956329
1761585610080510200,2.01051025390625,-0.38737189769744873,-0.4266267716884613,0.03230016306042671
1761585610090484200,2.020484130859375,-0.4264093339443207,-0.5103734731674194,0.051284678280353546
1761585610100457200,2.030457275390625,-0.49447786808013916,-0.6046091318130493,0.13408821821212769
1761585610110431200,2.04043115234375,-0.5959399938583374,-0.8137852549552917,0.27445879578590393
1761585610120405200,2.0504052734375,-0.6587181687355042,-1.138467788696289,0.41599276661872864
1761585610130379000,2.06037890625,-0.6752042770385742,-1.5970760583877563,0.47016745805740356
1761585610140352000,2.07035205078125,-0.6601478457450867,-2.2204976081848145,0.47522640228271484
1761585610150326000,2.080325927734375,-0.649651288986206,-2.545151948928833,0.41196826100349426
1761585610160300000,2.090300048828125,-0.5422893762588501,-2.054842710494995,0.17120279371738434
1761585610170273000,2.10027294921875,-0.28559672832489014,-1.5849510431289673,-0.04103582724928856
1761585610180247000,2.1102470703125,-0.21929065883159637,-1.2172470092773438,-0.2434816062450409
1761585610190221000,2.120220947265625,-0.23266714811325073,-0.8722965717315674,-0.4193495213985443
1761585610200195000,2.130195068359375,-0.20535217225551605,-0.5957627296447754,-0.5552546381950378
1761585610210168000,2.14016796875,-0.1356230527162552,-0.37707430124282837,-0.6667683124542236
1761585610220142000,2.15014208984375,-0.0714145228266716,-0.23486043512821198,-0.7413352131843567
1761585610230116000,2.1601162109375,-0.02481803670525551,-0.13487033545970917,-0.7543363571166992
1761585610240089000,2.170089111328125,0.011739175766706467,-0.11532913148403168,-0.7337285280227661
1761585610250063000,2.18006298828125,0.07134139537811279,-0.12818507850170135,-0.6883012056350708
1761585610260037000,2.190037109375,0.11923567950725555,-0.09500741958618164,-0.5937299728393555
1761585610270011100,2.20001123046875,0.1419176459312439,-0.11719284951686859,-0.4451751410961151
1761585610279983900,2.20998388671875,0.13886326551437378,-0.18062107264995575,-0.27452510595321655
1761585610289958000,2.2199580078125,0.09961512684822083,-0.20132412016391754,-0.11889980733394623
1761585610299932000,2.229931884765625,0.03418605402112007,-0.1303998827934265,-0.057018861174583435
1761585610309905200,2.2399052734375,-0.025874121114611626,0.03414749726653099,-0.10676109045743942
1761585610319879200,2.249879150390625,-0.054809898138046265,0.2560306489467621,-0.25320005416870117
1761585610329853200,2.259853271484375,0.009091022424399853,0.4656192362308502,-0.4451141655445099
1761585610339827000,2.269826904296875,0.1775442212820053,0.6089484691619873,-0.6408650279045105
1761585610349800200,2.27980029296875,0.2176908552646637,0.6637126803398132,-0.8502923250198364
1761585610359774200,2.289774169921875,0.10787408798933029,0.6620473861694336,-1.0234977006912231
1761585610369748200,2.299748291015625,0.06410224735736847,0.5790712237358093,-1.091642141342163
1761585610379722200,2.30972216796875,0.20735687017440796,0.42645129561424255,-0.9794914126396179
1761585610389695200,2.3196953125,0.47767162322998047,0.3834632933139801,-0.7165006399154663
1761585610399669200,2.329669189453125,0.6940619945526123,0.42868271470069885,-0.3984116017818451
1761585610409643300,2.339643310546875,0.7501716613769531,0.4395211637020111,-0.11452445387840271
1761585610419616000,2.349615966796875,0.4807247221469879,0.36982837319374084,0.09015758335590363
1761585610429590000,2.359590087890625,-0.03621064871549606,0.16511882841587067,0.1996193379163742
1761585610439564000,2.36956396484375,-0.5609273910522461,-0.03420945629477501,0.2653488218784332
1761585610449538000,2.3795380859375,-0.9115790128707886,-0.12560905516147614,0.2902461886405945
1761585610459511000,2.389510986328125,-1.0783131122589111,-0.13146241009235382,0.3270212411880493
1761585610469485000,2.399485107421875,-1.1593228578567505,-0.12570062279701233,0.38647401332855225
1761585610479459000,2.409458984375,-1.1985360383987427,-0.09559652209281921,0.43344125151634216
1761585610489432000,2.41943212890625,-1.1656639575958252,-0.04860760644078255,0.4904641807079315
1761585610499406000,2.429406005859375,-1.0712677240371704,0.03542657941579819,0.587738573551178
1761585610509379300,2.43937939453125,-1.0001778602600098,0.11925704032182693,0.6875127553939819
1761585610519353300,2.449353271484375,-1.0090311765670776,0.20876215398311615,0.7472798824310303
1761585610529326300,2.459326416015625,-1.0374068021774292,0.29412785172462463,0.7542626857757568
1761585610539300400,2.46930029296875,-1.0059479475021362,0.35196956992149353,0.7323592305183411
1761585610549274400,2.4792744140625,-0.911160409450531,0.32066264748573303,0.724236011505127
1761585610559247600,2.48924755859375,-0.5278902649879456,-0.16264276206493378,0.8380488753318787
1761585610569221400,2.499221435546875,-0.5598304867744446,-1.3070507049560547,1.4693487882614136
1761585610579195400,2.5091953125,-0.8056327700614929,-1.3448302745819092,1.550612211227417
1761585610589169400,2.51916943359375,-0.8100776672363281,-1.0254560708999634,0.9558578133583069
1761585610599142700,2.529142578125,-0.8155555129051208,-0.6173707842826843,0.5521111488342285
1761585610609116700,2.53911669921875,-0.8885196447372437,-0.14884738624095917,0.2182053178548813
1761585610619090400,2.54909033203125,-0.8809000849723816,0.1618329882621765,-0.051855992525815964
1761585610629063700,2.559063720703125,-0.785241961479187,0.2725774049758911,-0.1784208118915558
1761585610639037700,2.56903759765625,-0.6309855580329895,0.09836643934249878,-0.12173835933208466
1761585610649011700,2.57901171875,-0.48958268761634827,-0.2713564932346344,-0.005813586991280317
1761585610658985500,2.5889853515625,-0.36427509784698486,-0.553773820400238,0.09504058957099915
1761585610668958500,2.59895849609375,-0.3729666769504547,-0.7958657145500183,0.2263045459985733
1761585610678932500,2.608932373046875,-0.5194309949874878,-0.7740211486816406,0.34261199831962585
1761585610688906500,2.618906494140625,-0.6159874200820923,-0.6571900248527527,0.4088965356349945
1761585610698880500,2.628880615234375,-0.6170220375061035,-0.5050287246704102,0.4694104790687561
1761585610708853500,2.638853515625,-0.5496435761451721,-0.338712602853775,0.49268659949302673
1761585610718827500,2.64882763671875,-0.42046692967414856,-0.2062070369720459,0.46924281120300293
1761585610728801500,2.658801513671875,-0.23373733460903168,-0.15092876553535461,0.4062114357948303
1761585610738774500,2.6687744140625,-0.027251793071627617,-0.15865007042884827,0.3134271502494812
1761585610748748500,2.67874853515625,0.16111326217651367,-0.17700687050819397,0.18970046937465668
1761585610758722600,2.68872265625,0.2648457884788513,-0.20338788628578186,0.041069190949201584
1761585610768696600,2.698696533203125,0.21245963871479034,-0.10823200643062592,-0.0833321139216423
1761585610778669600,2.708669677734375,0.07781102508306503,0.1827276647090912,-0.20504790544509888
1761585610788643600,2.7186435546875,-0.026577521115541458,0.5158937573432922,-0.3267139196395874
1761585610798617600,2.72861767578125,-0.022122584283351898,0.7569438815116882,-0.4016006588935852
1761585610808590300,2.73859033203125,0.06929383426904678,0.8645952343940735,-0.43272143602371216
1761585610818564400,2.748564453125,0.21481534838676453,0.9030917882919312,-0.436353474855423
1761585610828538400,2.758538330078125,0.39499616622924805,0.9962521195411682,-0.47487467527389526
1761585610838512400,2.768512451171875,0.5742449760437012,1.145806908607483,-0.5638647079467773
1761585610848485400,2.7784853515625,0.6792054772377014,1.1167142391204834,-0.51791912317276
1761585610858459400,2.78845947265625,0.7858301997184753,1.1193251609802246,-0.528242290019989
1761585610868433400,2.798433349609375,0.8451465368270874,1.1610697507858276,-0.5667864680290222
1761585610878406400,2.808406494140625,0.8777918219566345,1.2846689224243164,-0.6455699801445007
1761585610888380400,2.81838037109375,0.8603861927986145,1.33477783203125,-0.7923562526702881
1761585610898354400,2.8283544921875,0.8309558629989624,1.292824625968933,-0.9947172999382019
1761585610908328400,2.838328369140625,0.8161409497261047,1.317050576210022,-1.2032467126846313
1761585610918301700,2.8483017578125,0.8485196232795715,1.3747272491455078,-1.395821213722229
1761585610928275700,2.858275634765625,0.9468268752098083,1.399328351020813,-1.5486751794815063
1761585610938249500,2.86824951171875,1.0933908224105835,1.4584587812423706,-1.6391619443893433
1761585610948222500,2.878222412109375,1.2380620241165161,1.5476899147033691,-1.6928068399429321
1761585610958196500,2.888196533203125,1.3372951745986938,1.5649006366729736,-1.7591578960418701
1761585610968170500,2.89817041015625,1.3856515884399414,1.5029796361923218,-1.8324127197265625
1761585610978144500,2.90814453125,1.3548479080200195,1.389169692993164,-1.8900976181030273
1761585610988117500,2.918117431640625,1.2599363327026367,1.333188772201538,-1.924472451210022
1761585610998091500,2.928091552734375,1.152316927909851,1.158370852470398,-1.926156997680664
1761585611008065500,2.9380654296875,1.130495548248291,0.8938432335853577,-1.890977144241333
1761585611018039600,2.94803955078125,1.1865612268447876,0.6104685068130493,-1.854819416999817
1761585611028012500,2.958012451171875,1.2434552907943726,0.37727299332618713,-1.8560388088226318
1761585611037986600,2.967986572265625,1.2862839698791504,0.2500298321247101,-1.9055932760238647
1761585611047960600,2.977960693359375,1.3098866939544678,0.24811701476573944,-1.998008131980896
1761585611057933600,2.98793359375,1.3192729949951172,0.1958727091550827,-2.0598437786102295
1761585611067907600,2.997907470703125,1.310347318649292,0.1221204325556755,-2.007207155227661
1761585611077881600,3.007881591796875,1.2818189859390259,0.018241168931126595,-1.831878662109375
1761585611087855600,3.017855712890625,1.27716863155365,-0.0738842636346817,-1.610009789466858
1761585611097828400,3.027828369140625,1.2744942903518677,-0.19118505716323853,-1.3451440334320068
1761585611107802400,3.03780224609375,1.266226053237915,-0.2433139681816101,-1.032012701034546
1761585611117776400,3.0477763671875,1.2385249137878418,-0.17809368669986725,-0.7292520403862
1761585611127749400,3.057749267578125,1.2298754453659058,-0.2166372537612915,-0.4410693943500519
1761585611137723400,3.067723388671875,1.2723126411437988,-0.27214178442955017,-0.1964825540781021
1761585611147697400,3.077697509765625,1.3392540216445923,-0.3545224964618683,-0.08162933588027954
1761585611157671400,3.08767138671875,1.383591890335083,-0.4342176020145416,-0.11619450896978378
1761585611167644400,3.09764453125,1.3748269081115723,-0.44787126779556274,-0.2081921249628067
1761585611177618400,3.107618408203125,1.3026951551437378,-0.3526827096939087,-0.29446709156036377
1761585611187592400,3.117592529296875,1.219312310218811,-0.11098447442054749,-0.4127461910247803
1761585611197566500,3.12756640625,1.151121735572815,0.11142942309379578,-0.5600932836532593
1761585611207539500,3.13753955078125,1.0893820524215698,0.35423147678375244,-0.6626533269882202
1761585611217513500,3.147513427734375,1.036598801612854,0.5977618098258972,-0.6751736402511597
1761585611227487500,3.157487548828125,0.9941539168357849,0.7858434915542603,-0.5958972573280334
1761585611237460700,3.167460693359375,0.9505840539932251,0.930070161819458,-0.47318676114082336
1761585611247434500,3.1774345703125,0.903954029083252,1.01931631565094,-0.3576214909553528
1761585611257408300,3.187408203125,0.8717347979545593,0.9577823877334595,-0.26022568345069885
1761585611267382300,3.19738232421875,0.8724513053894043,0.801681637763977,-0.18494804203510284
1761585611277355500,3.20735546875,0.8725354671478271,0.5635191202163696,-0.10858961939811707
1761585611287329500,3.21732958984375,0.8330652713775635,0.3632359504699707,-0.02872965857386589
1761585611297303600,3.227303466796875,0.7688311338424683,0.27104637026786804,0.03320428356528282
1761585611307276500,3.237276611328125,0.7262788414955139,0.2308182567358017,0.042031895369291306
1761585611317250600,3.24725048828125,0.7138983011245728,0.2023671716451645,0.010149065405130386
1761585611327224600,3.257224609375,0.7566412091255188,0.07945214956998825,-0.03649608790874481
1761585611337198600,3.267198486328125,0.8708234429359436,-0.11104270070791245,-0.05070112273097038
1761585611347171600,3.277171630859375,1.0252161026000977,-0.20480450987815857,-0.044208478182554245
1761585611357145600,3.2871455078125,1.1486096382141113,-0.12051013857126236,-0.09815772622823715
1761585611367119600,3.29711962890625,1.1495915651321411,0.15560640394687653,-0.2338244765996933
1761585611377093600,3.30709375,1.0046669244766235,0.5445898771286011,-0.4421044588088989
1761585611387066600,3.317066650390625,0.714892566204071,0.9720893502235413,-0.7104575634002686
1761585611397040600,3.32704052734375,0.40160468220710754,1.2059245109558105,-1.0368841886520386
1761585611407014700,3.3370146484375,0.21637816727161407,1.194420576095581,-1.2506433725357056
1761585611416987400,3.3469873046875,0.15434569120407104,1.0437557697296143,-1.2974412441253662
1761585611426961400,3.35696142578125,0.1167214959859848,0.7517598271369934,-1.179211139678955
1761585611436935400,3.366935302734375,-0.028747018426656723,0.49605563282966614,-0.9104098677635193
1761585611446909400,3.376909423828125,-0.2190653532743454,0.39951643347740173,-0.6228788495063782
1761585611456882400,3.38688232421875,-0.3222689926624298,0.47478827834129333,-0.4182114899158478
1761585611466856400,3.3968564453125,-0.3084034025669098,0.46626076102256775,-0.343032568693161
1761585611476830500,3.40683056640625,-0.22288665175437927,0.30690810084342957,-0.34449517726898193
1761585611486803500,3.416803466796875,-0.11542993783950806,0.1083938404917717,-0.34429073333740234
1761585611496777500,3.426777587890625,-0.041766103357076645,-0.12565194070339203,-0.3118198812007904
1761585611506751500,3.43675146484375,-0.010826610960066319,-0.3903334438800812,-0.2537540793418884
1761585611516726000,3.44672607421875,-0.021500028669834137,-0.6650392413139343,-0.216842919588089
1761585611526699000,3.456698974609375,-0.10843168944120407,-0.9968888163566589,-0.206749826669693
1761585611536673000,3.466673095703125,-0.2254784107208252,-1.2693731784820557,-0.21368390321731567
1761585611546647000,3.47664697265625,-0.29698115587234497,-1.3364686965942383,-0.19749610126018524
1761585611556620800,3.486620849609375,-0.32227081060409546,-1.210296869277954,-0.1536969542503357
1761585611566593800,3.49659375,-0.2272234708070755,-1.2019178867340088,-0.09009477496147156
1761585611576567800,3.50656787109375,-0.0997890755534172,-1.1500040292739868,-0.007796705234795809
1761585611586541800,3.516541748046875,0.04179752245545387,-0.8302925229072571,0.10463352501392365
1761585611596514800,3.526514892578125,0.23363353312015533,-0.41715526580810547,0.2523859739303589
1761585611606488800,3.53648876953125,0.4862470030784607,-0.08244820684194565,0.3923768699169159
1761585611616462800,3.546462890625,0.6930984258651733,-0.1324911266565323,0.5383026599884033
1761585611626436900,3.556436767578125,0.7018238306045532,-0.4775625765323639,0.7248228192329407
1761585611636410000,3.56641015625,0.49892503023147583,-0.7991582155227661,0.9439295530319214
1761585611646384000,3.576384033203125,0.008930605836212635,-1.0156079530715942,1.1731398105621338
1761585611656358000,3.58635791015625,-0.46657708287239075,-0.7489179372787476,1.3883423805236816
1761585611666332000,3.596331787109375,-0.6790632605552673,-0.31273767352104187,1.5619310140609741
1761585611676305200,3.60630517578125,-0.6371046304702759,-0.08192338049411774,1.690740704536438
1761585611686279200,3.616279052734375,-0.4819943308830261,-0.0844002291560173,1.6092262268066406
1761585611696253200,3.626253173828125,-0.4097883105278015,0.11011039465665817,1.3174264430999756
1761585611706226000,3.636225830078125,-0.42701297998428345,0.8223145604133606,1.0497548580169678
1761585611716200000,3.646199951171875,-0.3666146397590637,1.4938987493515015,0.7629634141921997
1761585611726174000,3.656174072265625,-0.2706194519996643,1.6435301303863525,0.4048767387866974
1761585611736148000,3.66614794921875,-0.2673884928226471,1.2381919622421265,0.11806654930114746
1761585611746121000,3.676120849609375,-0.3199467062950134,0.6001585721969604,0.07588586211204529
1761585611756095000,3.686094970703125,-0.35315847396850586,-0.005863159894943237,0.22543060779571533
1761585611766069000,3.696069091796875,-0.29284170269966125,-0.32199254631996155,0.43919888138771057
1761585611776042000,3.7060419921875,-0.149944469332695,-0.3206729590892792,0.6309432983398438
1761585611786016000,3.71601611328125,-0.01245262660086155,-0.05760348588228226,0.7315956950187683
1761585611795990000,3.725989990234375,0.060978177934885025,0.2832617163658142,0.7170710563659668
1761585611805964000,3.735964111328125,0.03135158121585846,0.4885035455226898,0.6384199261665344
1761585611815937000,3.74593701171875,-0.024540182203054428,0.6112762689590454,0.5856384634971619
1761585611825911000,3.7559111328125,-0.04301956668496132,0.6912289261817932,0.6144068241119385
1761585611835885000,3.765885009765625,-0.0314561203122139,0.8004443645477295,0.6128941178321838
1761585611845859000,3.775859130859375,-0.05231666564941406,0.8468700647354126,0.5301527976989746
1761585611855831800,3.785831787109375,-0.09157246351242065,0.7253929376602173,0.4684545695781708
1761585611865805800,3.795805908203125,-0.15994596481323242,0.5413623452186584,0.5186399817466736
1761585611875779800,3.80577978515625,-0.19909682869911194,0.3955819606781006,0.6813862919807434
1761585611885752800,3.8157529296875,-0.22743168473243713,0.2878943085670471,0.8611589670181274
1761585611895726800,3.825726806640625,-0.20050472021102905,0.1635044664144516,0.9795519113540649
1761585611905700900,3.835700927734375,-0.1621977686882019,-0.020149121060967445,1.0541638135910034
1761585611915675000,3.8456748046875,-0.1796494722366333,-0.1027824804186821,1.1067208051681519
1761585611925648000,3.85564794921875,-0.22609692811965942,-0.018065618351101875,1.06842839717865
1761585611935622000,3.865621826171875,-0.239033505320549,0.1321752816438675,0.9895842671394348
1761585611945596000,3.875595947265625,-0.1971215009689331,0.27551525831222534,0.9030329585075378
1761585611955570000,3.88556982421875,-0.14765648543834686,0.40576112270355225,0.8437432646751404
1761585611965543000,3.89554296875,-0.09933200478553772,0.5201704502105713,0.8294943571090698
1761585611975517000,3.905516845703125,-0.03554876148700714,0.5491195917129517,0.862212061882019
1761585611985491000,3.915490966796875,0.01205766573548317,0.3759959638118744,0.9378312826156616
1761585611995464000,3.9254638671875,0.0032971976324915886,0.04139348119497299,1.052192211151123
1761585612005438000,3.93543798828125,-0.10914554446935654,-0.29852843284606934,1.1369783878326416
1761585612015412000,3.945411865234375,-0.28179508447647095,-0.5751861929893494,1.1210155487060547
1761585612025386000,3.955385986328125,-0.4885510206222534,-0.6835330128669739,0.979714035987854
1761585612035359000,3.96535888671875,-0.6732791066169739,-0.6341723799705505,0.8050050735473633
1761585612045333000,3.9753330078125,-0.7306667566299438,-0.5223538875579834,0.6579704284667969
1761585612055307000,3.98530712890625,-0.6241259574890137,-0.43053051829338074,0.48256129026412964
1761585612065280000,3.995280029296875,-0.5157520174980164,-0.21452853083610535,0.27444514632225037
1761585612075254000,4.00525390625,-0.43835148215293884,0.07167260348796844,0.07144731283187866
1761585612085228000,4.01522802734375,-0.3325550854206085,0.3298114538192749,-0.09145307540893555
1761585612095202000,4.0252021484375,-0.22065944969654083,0.5472294092178345,-0.2036590576171875
1761585612105175000,4.035175048828125,-0.15025745332241058,0.6986103653907776,-0.26786041259765625
1761585612115149000,4.045149169921875,-0.10224616527557373,0.862204372882843,-0.2814643979072571
1761585612125123000,4.055123046875,-0.08442482352256775,0.8684502840042114,-0.2524966597557068
1761585612135097000,4.06509716796875,-0.09985173493623734,0.47951948642730713,-0.13455350697040558
1761585612145069800,4.07506982421875,-0.19283068180084229,-0.017256740480661392,0.022735439240932465
1761585612155043800,4.0850439453125,-0.3798031508922577,-0.2977394759654999,0.1669418066740036
1761585612165017900,4.095017822265625,-0.5628235936164856,-0.3371542692184448,0.3684594929218292
1761585612174990800,4.104990966796875,-0.6654782295227051,-0.3644886612892151,0.6139568090438843
1761585612184964900,4.11496484375,-0.6119868159294128,-0.37593892216682434,0.860028088092804
1761585612194939000,4.12493896484375,-0.46325305104255676,-0.40930142998695374,1.0138838291168213
1761585612204913000,4.134912841796875,-0.2992776930332184,-0.3942157030105591,1.0680890083312988
1761585612214886000,4.144885986328125,-0.14568039774894714,-0.33583879470825195,1.033747911453247
1761585612224860000,4.15485986328125,0.0007993276230990887,-0.29612573981285095,0.9627066850662231
1761585612234834000,4.164833984375,0.15788771212100983,-0.37922969460487366,0.9565797448158264
1761585612244808000,4.174807861328125,0.2930745780467987,-0.5718129873275757,1.0101628303527832
1761585612254781000,4.184781005859375,0.3551851809024811,-0.6484424471855164,0.9839314222335815
1761585612264755000,4.1947548828125,0.30034297704696655,-0.6352904438972473,0.8152526021003723
1761585612274729000,4.20472900390625,0.16920475661754608,-0.5478146076202393,0.5707716345787048
1761585612284702000,4.214701904296875,0.06421416252851486,-0.2825983762741089,0.3068574368953705
1761585612294676000,4.224676025390625,-0.004191919695585966,0.08901956677436829,0.0789128765463829
1761585612304650000,4.23464990234375,0.01159503310918808,0.3499622046947479,-0.06285038590431213
1761585612314624000,4.2446240234375,0.10541220009326935,0.44197380542755127,-0.10304202884435654
1761585612324597000,4.254596923828125,0.18627455830574036,0.3478025794029236,-0.07608924061059952
1761585612334571000,4.264571044921875,0.2097272127866745,0.16319629549980164,-0.020676003769040108
1761585612344544800,4.274544677734375,0.2065146416425705,-0.032563623040914536,0.05649334937334061
1761585612354518000,4.28451806640625,0.20688940584659576,-0.1442716121673584,0.13856367766857147
1761585612364492000,4.294491943359375,0.23015743494033813,-0.19881261885166168,0.1928945630788803
1761585612374466000,4.304466064453125,0.26443853974342346,-0.24248802661895752,0.2199058085680008
1761585612384440000,4.314440185546875,0.3021758198738098,-0.373322457075119,0.22129836678504944
1761585612394413000,4.3244130859375,0.31676921248435974,-0.5481774806976318,0.2251865267753601
1761585612404387000,4.334386962890625,0.2911415994167328,-0.6641011238098145,0.23163829743862152
1761585612414361000,4.344361083984375,0.1963316798210144,-0.583315908908844,0.24776220321655273
1761585612424335000,4.354335205078125,0.04161427542567253,-0.36539342999458313,0.24133066833019257
1761585612434308000,4.36430810546875,-0.08035794645547867,-0.16145694255828857,0.2246675044298172
1761585612444282000,4.3742822265625,-0.15547214448451996,-0.06981516629457474,0.1905319094657898
1761585612454256000,4.384256103515625,-0.15128567814826965,-0.14457383751869202,0.19786885380744934
1761585612464228900,4.394228759765625,-0.12371742725372314,-0.25208166241645813,0.20278504490852356
1761585612474203000,4.404202880859375,-0.12104053050279617,-0.35670971870422363,0.20832431316375732
1761585612484177000,4.414177001953125,-0.1703723818063736,-0.4598342478275299,0.22750253975391388
1761585612494151000,4.42415087890625,-0.22995755076408386,-0.5224606394767761,0.24633514881134033
1761585612504124000,4.4341240234375,-0.2513192892074585,-0.5544641613960266,0.26334288716316223
1761585612514098400,4.444098388671875,-0.22198505699634552,-0.5856290459632874,0.2949024736881256
1761585612524072400,4.454072509765625,-0.1608588546514511,-0.6499435901641846,0.3360954523086548
1761585612534046500,4.46404638671875,-0.13579687476158142,-0.7471158504486084,0.3733038604259491
1761585612544019500,4.47401953125,-0.2147689163684845,-0.8128959536552429,0.3796626925468445
1761585612553993500,4.483993408203125,-0.39837634563446045,-0.7410791516304016,0.3128718137741089
1761585612563967500,4.493967529296875,-0.5842170715332031,-0.6140141487121582,0.15026454627513885
1761585612573940500,4.5039404296875,-0.6784331202507019,-0.5081388354301453,-0.03846115246415138
1761585612583914500,4.51391455078125,-0.6268801689147949,-0.47324347496032715,-0.14666858315467834
1761585612593888500,4.523888427734375,-0.45796504616737366,-0.48409777879714966,-0.09453356266021729
1761585612603862500,4.533862548828125,-0.2373729944229126,-0.4774760901927948,0.06009995937347412
1761585612613835300,4.543835205078125,0.005510395392775536,-0.3291947841644287,0.20458483695983887
1761585612623809300,4.553809326171875,0.18290302157402039,-0.04299737885594368,0.2650487422943115
1761585612633783300,4.563783203125,0.17802727222442627,-0.2002047300338745,0.4270017743110657
1761585612643757300,4.57375732421875,0.06583680957555771,-0.43497782945632935,0.4982847571372986
1761585612653730300,4.583730224609375,-0.19265136122703552,-0.6331927180290222,0.33254364132881165
1761585612663704300,4.593704345703125,-0.37086185812950134,-0.7969952821731567,0.10319222509860992
1761585612673678300,4.60367822265625,-0.46605321764945984,-0.9031729698181152,-0.11392755806446075
1761585612683651300,4.6136513671875,-0.5522605180740356,-0.8128718733787537,-0.31289124488830566
1761585612693627400,4.62362744140625,-0.6230063438415527,-0.5889463424682617,-0.46827659010887146
1761585612703600400,4.633600341796875,-0.6278643608093262,-0.4030749499797821,-0.5652481317520142
1761585612713574400,4.643574462890625,-0.5804257392883301,-0.29602786898612976,-0.584976077079773
1761585612723548400,4.65354833984375,-0.5264691114425659,-0.22159405052661896,-0.535888671875
1761585612733521400,4.663521484375,-0.4540806710720062,-0.20074363052845,-0.45021000504493713
1761585612743495400,4.673495361328125,-0.3392432630062103,-0.22764845192432404,-0.3613573908805847
1761585612753469400,4.683469482421875,-0.2242109477519989,-0.26523521542549133,-0.2563835680484772
1761585612763443500,4.693443359375,-0.1700933873653412,-0.3006446063518524,-0.1669311821460724
1761585612773416400,4.70341650390625,-0.16996076703071594,-0.3532087504863739,-0.09579016268253326
1761585612783390500,4.713390380859375,-0.2107197791337967,-0.43647775053977966,-0.04309660568833351
1761585612793364500,4.723364501953125,-0.2564622163772583,-0.5399013757705688,-0.01571398414671421
1761585612803338500,4.73333837890625,-0.285870224237442,-0.6323070526123047,-0.025806257501244545
1761585612813311200,4.743311279296875,-0.3013879358768463,-0.7241195440292358,-0.07598234713077545
1761585612823285200,4.75328515625,-0.2858593761920929,-0.8217917084693909,-0.14465296268463135
1761585612833259300,4.76325927734375,-0.2269638329744339,-0.9555076956748962,-0.1856486052274704
1761585612843232500,4.773232421875,-0.1264958381652832,-1.1350332498550415,-0.19330953061580658
1761585612853206300,4.783206298828125,-0.021041853353381157,-1.3125406503677368,-0.20185934007167816
1761585612863180300,4.79318017578125,0.03646087273955345,-1.4447730779647827,-0.19828565418720245
1761585612873154300,4.803154296875,0.030534274876117706,-1.4349411725997925,-0.14900866150856018
1761585612883127600,4.81312744140625,-0.012541618198156357,-1.2877920866012573,-0.06809031963348389
1761585612893101600,4.8231015625,-0.10138972848653793,-1.09451162815094,-0.0029928083531558514
1761585612903075600,4.83307568359375,-0.213929682970047,-0.9183453321456909,0.03598945960402489
1761585612913049300,4.84304931640625,-0.29388177394866943,-0.7992966771125793,0.05705186724662781
1761585612923022600,4.853022705078125,-0.3137512505054474,-0.7278825044631958,0.06424470245838165
1761585612932996600,4.86299658203125,-0.2892179489135742,-0.6997262835502625,0.09144330024719238
1761585612942970600,4.872970703125,-0.23768337070941925,-0.7143480777740479,0.13244906067848206
1761585612952943600,4.882943603515625,-0.16224373877048492,-0.7681031823158264,0.19348977506160736
1761585612962917600,4.892917724609375,-0.08945655077695847,-0.8707361817359924,0.25071537494659424
1761585612972891600,4.9028916015625,-0.05484264716506004,-0.9443406462669373,0.275456964969635
1761585612982865700,4.91286572265625,-0.07513859868049622,-0.9449787139892578,0.25851526856422424
1761585612992838400,4.92283837890625,-0.14907008409500122,-0.8752667307853699,0.1963525414466858
1761585613002812400,4.9328125,-0.24550041556358337,-0.7599356174468994,0.12430389970541
1761585613012786400,4.942786376953125,-0.33855634927749634,-0.6306465864181519,0.04664132744073868
1761585613022759400,4.952759521484375,-0.41163507103919983,-0.5327621102333069,-0.024131661280989647
1761585613032733400,4.9627333984375,-0.44975370168685913,-0.4613172113895416,-0.08845578879117966
1761585613042707500,4.97270751953125,-0.4668249189853668,-0.4146254062652588,-0.1326296478509903
1761585613052681500,4.982681396484375,-0.4547216594219208,-0.4049016535282135,-0.15102863311767578
1761585613062654500,4.992654541015625,-0.4168407618999481,-0.4460277259349823,-0.1290367692708969
1761585613072628500,5.00262841796875,-0.36807534098625183,-0.5375280976295471,-0.0548565536737442
1761585613082602500,5.0126025390625,-0.29978951811790466,-0.672450065612793,0.04919798672199249
1761585613092576500,5.022576416015625,-0.2033463418483734,-0.8462938070297241,0.16393069922924042
1761585613102549500,5.032549560546875,-0.17630964517593384,-0.9934480786323547,0.23601560294628143
1761585613112523500,5.0425234375,-0.2581658959388733,-1.0483616590499878,0.2555357813835144
1761585613122497500,5.05249755859375,-0.4009510278701782,-1.044779658317566,0.23397880792617798
1761585613132470300,5.06247021484375,-0.565940797328949,-1.0053046941757202,0.16805359721183777
1761585613142444300,5.0724443359375,-0.6816180944442749,-0.9356308579444885,0.07256652414798737
1761585613152418300,5.082418212890625,-0.7055172920227051,-0.8565341830253601,-0.024579735472798347
1761585613162392300,5.092392333984375,-0.643748939037323,-0.7761120200157166,-0.07167400419712067
1761585613172365300,5.102365234375,-0.5454415082931519,-0.7584224939346313,-0.015667730942368507
1761585613182339300,5.11233935546875,-0.4731278717517853,-0.760288417339325,0.21773077547550201
1761585613192313300,5.122313232421875,-0.42863017320632935,-0.7503383159637451,0.588823139667511
1761585613202287400,5.132287353515625,-0.38649460673332214,-0.7616683840751648,0.9525479078292847
1761585613212260600,5.142260498046875,-0.3614974021911621,-0.8874660134315491,1.2075713872909546
1761585613222234400,5.152234375,-0.3656488358974457,-1.108474850654602,1.3766722679138184
1761585613232208400,5.16220849609375,-0.375754177570343,-1.3875888586044312,1.5325214862823486
1761585613242181600,5.172181640625,-0.3806159794330597,-1.733628273010254,1.649473786354065
1761585613252155600,5.18215576171875,-0.4190126359462738,-2.1860291957855225,1.6880576610565186
1761585613262129700,5.192129638671875,-0.49994954466819763,-2.691638469696045,1.647616982460022
1761585613272103400,5.202103515625,-0.6392430067062378,-2.9028916358947754,1.4583262205123901
1761585613282076400,5.212076416015625,-0.7798882722854614,-2.744259834289551,1.0586276054382324
1761585613292050400,5.222050537109375,-0.8736429810523987,-2.473170042037964,0.5840495824813843
1761585613302024400,5.2320244140625,-0.9229245781898499,-2.1618492603302,0.20031796395778656
1761585613311998500,5.24199853515625,-0.8709737658500671,-1.810447096824646,0.006985523737967014
1761585613321971500,5.251971435546875,-0.762524425983429,-1.5776821374893188,-0.0689031258225441
1761585613331945500,5.261945556640625,-0.7022262215614319,-1.3665589094161987,-0.15606652200222015
1761585613341919500,5.27191943359375,-0.6935262680053711,-1.1349189281463623,-0.29049384593963623
1761585613351892500,5.281892578125,-0.7252343893051147,-0.9290471076965332,-0.4715730845928192
1761585613361866500,5.291866455078125,-0.813918948173523,-1.1034797430038452,-0.7455857992172241
1761585613371840500,5.301840576171875,-0.9347481727600098,-1.8007493019104004,-1.2665016651153564
1761585613381814500,5.311814453125,-0.9966970086097717,-2.450416326522827,-1.997748851776123
1761585613391787500,5.32178759765625,-1.088743805885315,-2.850990056991577,-2.791987657546997
1761585613401761500,5.331761474609375,-1.1943302154541016,-2.938415765762329,-3.4622228145599365
1761585613411735600,5.341735595703125,-1.299339771270752,-3.0131757259368896,-3.9182956218719482
1761585613421708300,5.351708251953125,-1.3336750268936157,-2.9803032875061035,-4.130939483642578
1761585613431682300,5.361682373046875,-1.036112666130066,-2.698312282562256,-4.003204822540283
1761585613441656300,5.37165625,-0.6819483637809753,-2.2371184825897217,-4.066565036773682
1761585613451630300,5.38163037109375,-0.38709595799446106,-1.3402798175811768,-4.13648796081543
1761585613461603300,5.391603271484375,-0.06036975234746933,-0.32975348830223083,-4.270150661468506
1761585613471577300,5.401577392578125,0.40990960597991943,0.6774787902832031,-4.349855899810791
1761585613481551400,5.41155126953125,0.9731714725494385,1.5294930934906006,-4.291925430297852
1761585613491525400,5.421525390625,1.5022680759429932,2.228681802749634,-4.087249755859375
1761585613501498400,5.431498291015625,1.9075756072998047,2.6523795127868652,-3.7743887901306152
1761585613511471000,5.44147119140625,2.147897243499756,2.6759703159332275,-3.4208006858825684
1761585613521445000,5.451445068359375,2.1940793991088867,2.3705379962921143,-3.1000494956970215
1761585613531418000,5.461418212890625,2.0453670024871826,1.872926115989685,-2.8181581497192383
1761585613541392100,5.47139208984375,1.8040215969085693,1.2539948225021362,-2.5682480335235596
1761585613551366100,5.4813662109375,1.5537190437316895,0.48459023237228394,-2.2989940643310547
1761585613561340200,5.491340087890625,1.3595283031463623,-0.22668679058551788,-1.975770115852356
1761585613571313200,5.501313232421875,1.230422019958496,-0.6062647700309753,-1.5632244348526
1761585613581287200,5.511287109375,1.1660945415496826,-0.619117259979248,-1.1237373352050781
1761585613591261200,5.52126123046875,1.1809812784194946,-0.4524041414260864,-0.7346252799034119
1761585613601234000,5.53123388671875,1.2375179529190063,-0.2486926019191742,-0.4872860312461853
1761585613611208000,5.5412080078125,1.2728053331375122,0.12785759568214417,-0.4285827875137329
1761585613621182000,5.551181884765625,1.302377700805664,0.7011569142341614,-0.5838636159896851
1761585613631156000,5.561156005859375,1.3382866382598877,1.197445034980774,-0.8884552121162415
1761585613641129000,5.57112890625,1.337910532951355,1.4720920324325562,-1.2600878477096558
1761585613651103000,5.58110302734375,1.275733232498169,1.6195887327194214,-1.6555038690567017
1761585613661077000,5.591076904296875,1.2297756671905518,1.733812928199768,-2.01692795753479
1761585613671051000,5.601051025390625,1.2342969179153442,1.897749662399292,-2.3441224098205566
1761585613681024000,5.61102392578125,1.2837517261505127,2.128195285797119,-2.6564693450927734
1761585613690998000,5.620998046875,1.387132167816162,2.2517285346984863,-2.9524848461151123
1761585613700972000,5.630971923828125,1.4605727195739746,1.9439584016799927,-3.2274985313415527
1761585613710945000,5.640945068359375,1.3764575719833374,1.4889013767242432,-3.4099783897399902
1761585613720919000,5.6509189453125,1.1549785137176514,1.3574095964431763,-3.401512861251831
1761585613730893000,5.66089306640625,0.934606671333313,1.4908171892166138,-3.1588375568389893
1761585613740867000,5.6708671875,0.7664148807525635,1.5734573602676392,-2.6498148441314697
1761585613750840000,5.680840087890625,0.6599462628364563,1.6660666465759277,-1.9809342622756958
1761585613760814000,5.69081396484375,0.6256378293037415,1.5465681552886963,-1.3252921104431152
1761585613770788000,5.7007880859375,0.5845471620559692,1.0710535049438477,-0.8325229287147522
1761585613780762000,5.71076220703125,0.49534985423088074,0.36591020226478577,-0.5235138535499573
1761585613790735000,5.720735107421875,0.467729389667511,-0.0911920815706253,-0.3698670566082001
1761585613800709000,5.730709228515625,0.5526393055915833,-0.1534775346517563,-0.32136207818984985
1761585613810683100,5.74068310546875,0.6987344622612,0.047286469489336014,-0.37600135803222656
1761585613820656000,5.75065625,0.8464959263801575,0.2127971053123474,-0.5415008068084717
1761585613830630100,5.760630126953125,0.9240331053733826,0.1762380301952362,-0.8197342753410339
1761585613840604200,5.770604248046875,0.836662232875824,0.10247741639614105,-1.1008201837539673
1761585613850578200,5.780578125,0.6469767093658447,0.19776931405067444,-1.2488237619400024
1761585613860551200,5.79055126953125,0.4937118589878082,0.5288872122764587,-1.2691869735717773
1761585613870525200,5.800525146484375,0.4087226688861847,1.1346650123596191,-1.2172152996063232
1761585613880499200,5.810499267578125,0.3928484320640564,1.7750002145767212,-1.2227559089660645
1761585613890472200,5.82047216796875,0.45122307538986206,2.0815701484680176,-1.3486469984054565
1761585613900446200,5.8304462890625,0.4966204762458801,1.9708565473556519,-1.5109883546829224
1761585613910420200,5.840420166015625,0.5426732301712036,1.4984692335128784,-1.5596415996551514
1761585613920394200,5.850394287109375,0.6207202672958374,0.9105561971664429,-1.4322237968444824
1761585613930367000,5.860366943359375,0.7682359218597412,0.5644480586051941,-1.1453300714492798
1761585613940341000,5.870341064453125,0.9318987131118774,0.4577910304069519,-0.7722097039222717
1761585613950315000,5.88031494140625,1.0082917213439941,0.48476141691207886,-0.39600619673728943
1761585613960289000,5.8902890625,1.029768943786621,0.7354748845100403,-0.1421164572238922
1761585613970262000,5.900261962890625,0.9728683233261108,0.9369581937789917,-0.036064065992832184
1761585613980236000,5.910236083984375,0.8042967915534973,0.9539616703987122,-0.06202832609415054
1761585613990210000,5.9202099609375,0.5550731420516968,0.9227707386016846,-0.2049601823091507
1761585614000183000,5.93018310546875,0.24404388666152954,0.6496735215187073,-0.4301908612251282
1761585614010157000,5.940156982421875,-0.057715438306331635,-0.08863276243209839,-0.6199440360069275
1761585614020131000,5.950131103515625,-0.2926185727119446,-0.9782655239105225,-0.628465473651886
1761585614030105000,5.96010498046875,-0.41661563515663147,-1.3533583879470825,-0.3697955310344696
1761585614040078000,5.970078125,-0.4522809088230133,-1.1899631023406982,0.31118401885032654
1761585614050052000,5.980052001953125,-0.3395423889160156,-0.6254358291625977,1.368080735206604
1761585614060026000,5.990026123046875,-0.12387310713529587,0.2431919276714325,2.5789575576782227
1761585614069999000,5.9999990234375,0.06263738125562668,1.090810775756836,3.5782766342163086
1761585614079972900,6.009972900390625,0.2068193107843399,1.6380184888839722,4.265583515167236
1761585614089947000,6.01994677734375,0.34590399265289307,2.086548089981079,4.637370586395264
1761585614099921000,6.0299208984375,0.39290809631347656,2.484861373901367,4.838804721832275
1761585614109894100,6.03989404296875,0.40336206555366516,2.748500108718872,4.938395023345947
1761585614119868200,6.0498681640625,0.4235523045063019,3.0045039653778076,4.837390422821045
1761585614129842000,6.059842041015625,0.4030883014202118,3.144879102706909,4.6214518547058105
1761585614139816000,6.06981591796875,0.32270458340644836,2.9031505584716797,4.3572998046875
1761585614149789200,6.0797890625,0.2847502529621124,2.243020534515381,3.9836132526397705
1761585614159763200,6.08976318359375,0.4211644232273102,0.8096649646759033,3.14782977104187
1761585614169737200,6.0997373046875,0.7156729698181152,-1.3204734325408936,1.5252680778503418
1761585614179710200,6.109710205078125,1.1078805923461914,-2.8130910396575928,-0.19484522938728333
1761585614189684200,6.119684326171875,1.2342497110366821,-2.9308154582977295,-1.1484252214431763
1761585614199658200,6.129658203125,1.019361138343811,-2.070431709289551,-1.378141164779663
1761585614209632300,6.13963232421875,0.6646979451179504,-0.7974262833595276,-1.2924672365188599
1761585614219605000,6.14960498046875,0.36806127429008484,0.2596827745437622,-1.0855059623718262
1761585614229579000,6.1595791015625,0.2182645946741104,0.9938848614692688,-0.8502995371818542
1761585614239553000,6.169552978515625,0.16519469022750854,1.4052560329437256,-0.6494041085243225
1761585614249527000,6.179527099609375,0.22636164724826813,1.4764623641967773,-0.5132790207862854
1761585614259500000,6.1895,0.34237176179885864,1.3552104234695435,-0.45710307359695435
1761585614269474000,6.19947412109375,0.3520142734050751,1.0454931259155273,-0.4324411451816559
1761585614279448000,6.209447998046875,0.24369995296001434,0.8108888864517212,-0.4368562400341034
1761585614289421000,6.219421142578125,0.08846428990364075,0.7008787393569946,-0.4658181369304657
1761585614299395000,6.22939501953125,-0.07205428183078766,0.7251846790313721,-0.47582191228866577
1761585614309369000,6.239369140625,-0.2529345750808716,0.8743113279342651,-0.4279329478740692
1761585614319343000,6.249343017578125,-0.4128517806529999,1.1115598678588867,-0.35404127836227417
1761585614329316000,6.259316162109375,-0.511799693107605,1.3067387342453003,-0.2566486895084381
1761585614339290000,6.2692900390625,-0.5320131778717041,1.4096611738204956,-0.183439239859581
1761585614349264100,6.27926416015625,-0.4685160219669342,1.3584100008010864,-0.13943050801753998
1761585614359238100,6.289238037109375,-0.37307605147361755,1.2320905923843384,-0.10666829347610474
1761585614369211100,6.299211181640625,-0.2480105310678482,1.0270328521728516,-0.046249691396951675
1761585614379185000,6.309184814453125,-0.12409768998622894,0.9101665019989014,0.04275974631309509
1761585614389159000,6.319158935546875,-0.028499789535999298,0.8973287343978882,0.14468452334403992
1761585614399132000,6.3291318359375,0.053973447531461716,0.9489311575889587,0.20601999759674072
1761585614409106000,6.33910595703125,0.09836701303720474,0.9674723744392395,0.22028282284736633
1761585614419080000,6.349079833984375,0.0941193699836731,0.8479683995246887,0.182159423828125
1761585614429054000,6.359053955078125,0.08133833110332489,0.448369562625885,0.05181339010596275
1761585614439027000,6.36902685546875,0.060547441244125366,-0.09098919481039047,-0.16222138702869415
1761585614449001000,6.3790009765625,-0.040193818509578705,-0.6330447793006897,-0.3768708407878876
1761585614458975000,6.38897509765625,-0.19261077046394348,-1.0809940099716187,-0.491985559463501
1761585614468948200,6.3989482421875,-0.3325023651123047,-1.3138782978057861,-0.5109429955482483
1761585614478922200,6.408922119140625,-0.42496129870414734,-1.3248525857925415,-0.5594920516014099
1761585614488896300,6.418896240234375,-0.453678160905838,-1.2789077758789062,-0.6789076924324036
1761585614498870000,6.4288701171875,-0.43607595562934875,-1.257617712020874,-0.8758925199508667
1761585614508844300,6.43884423828125,-0.454700231552124,-1.3628360033035278,-1.1069433689117432
1761585614518818300,6.448818359375,-0.49818119406700134,-1.4897396564483643,-1.4086627960205078
1761585614528792300,6.458792236328125,-0.4664490818977356,-1.794457197189331,-1.7877445220947266
1761585614538766300,6.468766357421875,-0.3627500832080841,-1.7571340799331665,-2.3618035316467285
1761585614548739300,6.4787392578125,-0.1362471580505371,-1.6716959476470947,-2.9934134483337402
1761585614558713300,6.48871337890625,0.16370773315429688,-1.7785463333129883,-3.558424949645996
1761585614568687400,6.498687255859375,0.5081404447555542,-2.0308613777160645,-4.0638203620910645
1761585614578660400,6.508660400390625,0.9111984968185425,-2.4600329399108887,-4.480421543121338
1761585614588634400,6.51863427734375,1.437847375869751,-3.092801094055176,-4.748178482055664
1761585614598608100,6.528608154296875,2.1472206115722656,-3.992929697036743,-4.774686813354492
1761585614608582100,6.53858203125,2.980304002761841,-3.6215827465057373,-4.241822242736816
1761585614618555400,6.548555419921875,3.4984655380249023,-1.8555783033370972,-3.1649839878082275
1761585614628529400,6.558529296875,3.6595611572265625,-0.05214392766356468,-1.917518138885498
1761585614638503400,6.56850341796875,3.5279228687286377,1.6751831769943237,-0.7528275847434998
1761585614648476400,6.578476318359375,3.2717132568359375,2.915449857711792,0.2954394519329071
1761585614658450400,6.588450439453125,2.9116365909576416,3.094529628753662,1.2732754945755005
1761585614668424400,6.598424560546875,2.1651999950408936,1.3813965320587158,1.8565794229507446
1761585614678398500,6.6083984375,0.4131186604499817,-0.49005475640296936,1.6453617811203003
1761585614688371500,6.618371337890625,-0.4413307309150696,-0.8256085515022278,1.4047975540161133
1761585614698345500,6.628345458984375,-0.3589930832386017,-0.8910849094390869,1.3202800750732422
1761585614708319500,6.638319580078125,-0.3079168498516083,-0.48126569390296936,1.6304197311401367
1761585614718293500,6.64829345703125,-0.25727611780166626,-0.13242094218730927,2.030298948287964
1761585614728266200,6.658266357421875,-0.2012229859828949,0.13823159039020538,2.4653806686401367
1761585614738240300,6.668240234375,-0.11705943197011948,0.24910612404346466,2.936849594116211
1761585614748214300,6.67821435546875,-0.13913783431053162,-0.22887800633907318,3.1727025508880615
1761585614758187300,6.688187255859375,-0.34469741582870483,-1.1189779043197632,2.8834617137908936
1761585614768161300,6.698161376953125,-0.5765418410301208,-1.151637315750122,2.4271364212036133
1761585614778135300,6.70813525390625,-0.655522882938385,-0.4240749180316925,2.161104440689087
1761585614788109300,6.718109375,-0.5702572464942932,0.3534035384654999,1.99708890914917
1761585614798082300,6.728082275390625,-0.3953098654747009,0.9116482138633728,1.7072646617889404
1761585614808056300,6.738056396484375,-0.25015053153038025,1.1343568563461304,1.2436884641647339
1761585614818030300,6.7480302734375,-0.06866676360368729,1.086683750152588,0.7517117261886597
1761585614828003300,6.75800341796875,0.15996402502059937,1.0665156841278076,0.3352133333683014
1761585614837977300,6.767977294921875,0.3742096424102783,0.8612877726554871,0.036034755408763885
1761585614847951400,6.777951416015625,0.5181401968002319,0.4585784077644348,-0.05737561732530594
1761585614857925400,6.78792529296875,0.5760762691497803,-0.08506792038679123,-0.022939126938581467
1761585614867898000,6.797898193359375,0.5590813159942627,-0.5685877203941345,-0.014401031658053398
1761585614877872000,6.8078720703125,0.4591023027896881,-0.8229838609695435,-0.19695845246315002
1761585614887846100,6.81784619140625,0.3275109827518463,-0.802467942237854,-0.6141043305397034
1761585614897820200,6.827820068359375,0.24483835697174072,-0.6206455230712891,-1.159487009048462
1761585614907793400,6.83779345703125,0.2846129238605499,-0.7412542104721069,-1.5256283283233643
1761585614917767200,6.84776708984375,0.4537573754787445,-0.977994978427887,-1.3682585954666138
1761585614927741200,6.8577412109375,0.6296674609184265,-1.0533180236816406,-0.9961784482002258
1761585614937714400,6.86771435546875,0.7955542206764221,-1.4649326801300049,-0.6435291767120361
1761585614947688400,6.8776884765625,0.9583548307418823,-2.0782370567321777,-0.27764254808425903
1761585614957662500,6.887662353515625,1.1044821739196777,-2.629636287689209,0.15608598291873932
1761585614967636200,6.89763623046875,1.1818832159042358,-3.0848636627197266,0.741585373878479
1761585614977609500,6.907609375,1.1675472259521484,-2.6792309284210205,1.2286944389343262
1761585614987583500,6.91758349609375,1.1173095703125,-1.0405194759368896,1.3182101249694824
1761585614997557500,6.9275576171875,1.3113123178482056,0.6085194945335388,1.1215096712112427
1761585615007531500,6.937531494140625,1.6584974527359009,1.4349820613861084,0.5805612206459045
1761585615017504300,6.947504150390625,1.862929344177246,1.5830090045928955,-0.08609951287508011
1761585615027478300,6.957478271484375,1.7645598649978638,1.3633277416229248,-0.6266684532165527
1761585615037452300,6.967452392578125,1.486899971961975,0.9699978828430176,-0.9303087592124939
1761585615047425300,6.97742529296875,1.1828668117523193,0.6581366658210754,-0.9172936081886292
1761585615057399300,6.9873994140625,0.9560956954956055,0.41402822732925415,-0.6025299429893494
1761585615067373300,6.997373291015625,0.877522885799408,0.08448921144008636,-0.13624030351638794
1761585615077347300,7.007347412109375,0.9240633249282837,-0.6861796975135803,0.38055044412612915
1761585615087320300,7.0173203125,0.748458981513977,-1.4403672218322754,0.7740710973739624
1761585615097294300,7.02729443359375,0.18465562164783478,-1.909765362739563,0.8871411085128784
1761585615107268400,7.037268310546875,-0.17820993065834045,-2.068293809890747,0.8273872137069702
1761585615117242400,7.047242431640625,-0.22793623805046082,-1.9019466638565063,0.6716054081916809
1761585615127215400,7.05721533203125,-0.12427828460931778,-1.693661093711853,0.5255853533744812
1761585615137189400,7.067189453125,0.07428504526615143,-1.591306209564209,0.4741193354129791
1761585615147163400,7.077163330078125,0.4867982864379883,-1.9332547187805176,0.576833188533783
1761585615157136400,7.087136474609375,0.891028642654419,-2.9457504749298096,0.7201759219169617
1761585615167110400,7.0971103515625,0.9350469708442688,-3.8766322135925293,0.8101678490638733
1761585615177084400,7.10708447265625,0.6799086928367615,-4.109917163848877,0.7464346289634705
1761585615187058200,7.11705810546875,0.5198047757148743,-3.7731101512908936,0.5809623003005981
1761585615197031200,7.12703125,0.5954320430755615,-3.172281503677368,0.6479804515838623
1761585615207005200,7.137005126953125,0.7455847859382629,-3.406538486480713,0.8436316847801208
1761585615216979200,7.146979248046875,0.8777191042900085,-4.149231910705566,1.268881916999817
1761585615226953200,7.156953125,0.9402831792831421,-5.201264381408691,1.7464849948883057
1761585615236926200,7.16692626953125,0.927488386631012,-5.899509429931641,2.2682576179504395
1761585615246900200,7.176900146484375,0.6131605505943298,-5.59879732131958,2.6120715141296387
1761585615256874200,7.186874267578125,-0.04426439106464386,-4.5773186683654785,2.271782875061035
1761585615266847500,7.196847412109375,-0.34900644421577454,-3.49107027053833,1.4254812002182007
1761585615276821200,7.2068212890625,-0.13754093647003174,-3.1860194206237793,0.4754997193813324
1761585615286795300,7.216795166015625,0.2834715247154236,-3.1086652278900146,-0.37207871675491333
1761585615296769300,7.226769287109375,0.36810076236724854,-2.9372453689575195,-1.1225990056991577
1761585615306742500,7.236742431640625,0.12850230932235718,-1.8938859701156616,-1.858100414276123
1761585615316716500,7.246716552734375,0.07916002720594406,-0.8344358801841736,-2.3423609733581543
1761585615326690600,7.256690673828125,0.31433847546577454,-0.5304688215255737,-2.5178372859954834
1761585615336663300,7.266663330078125,0.7600347399711609,-0.7442264556884766,-2.56662654876709
1761585615346637300,7.27663720703125,1.1090302467346191,-1.1632230281829834,-2.6010212898254395
1761585615356611300,7.286611328125,1.1123688220977783,-1.0980870723724365,-2.593120813369751
1761585615366585300,7.29658544921875,1.0243710279464722,-0.20457760989665985,-2.552809000015259
1761585615376558300,7.306558349609375,0.9772224426269531,0.5445187091827393,-2.4385414123535156
1761585615386532400,7.316532470703125,0.896228015422821,0.951823353767395,-2.258028745651245
1761585615396506400,7.32650634765625,0.7180478572845459,0.9380275011062622,-1.9959442615509033
1761585615406480400,7.33648046875,0.3138258159160614,0.4870389997959137,-1.5380176305770874
1761585615416453400,7.346453369140625,0.08358987420797348,0.2452392727136612,-1.0845986604690552
1761585615426427400,7.356427490234375,0.022670602425932884,0.26892781257629395,-0.5575340390205383
1761585615436401400,7.3664013671875,-0.09231515973806381,0.3594522178173065,0.06754404306411743
1761585615446374400,7.37637451171875,-0.27344927191734314,0.5928439497947693,0.7363146543502808
1761585615456348400,7.386348388671875,-0.4295801520347595,0.5394156575202942,1.3601253032684326
1761585615466322400,7.396322509765625,-0.6279802918434143,-0.0857134461402893,1.9039052724838257
1761585615476296400,7.40629638671875,-0.942202627658844,-1.278106451034546,2.335829496383667
1761585615486269200,7.416269287109375,-1.6562203168869019,-3.1835525035858154,2.240878105163574
1761585615496243200,7.4262431640625,-2.4607303142547607,-4.5988993644714355,2.078885555267334
1761585615506217200,7.43621728515625,-2.9401607513427734,-5.1004743576049805,2.4614412784576416
1761585615516190500,7.4461904296875,-3.171976089477539,-5.603074550628662,2.942038059234619
1761585615526163500,7.45616357421875,-3.4171972274780273,-5.507830619812012,3.294707775115967
1761585615536137500,7.466137451171875,-3.0651679039001465,-4.291568279266357,3.0358965396881104
1761585615546111500,7.476111572265625,-2.072828769683838,-1.8872807025909424,2.220080614089966
1761585615556084700,7.486084716796875,-1.0312453508377075,1.719886302947998,1.2506688833236694
1761585615566058800,7.496058837890625,-0.27123120427131653,3.6270575523376465,-0.15404042601585388
1761585615576032500,7.506032470703125,-0.11453422904014587,3.844287157058716,-1.0246882438659668
1761585615586006500,7.516006591796875,-0.42641541361808777,2.872832775115967,-1.2922630310058594
1761585615595979800,7.525979736328125,-0.9148629307746887,1.4417206048965454,-1.3052042722702026
1761585615605953800,7.535953857421875,-1.493664026260376,-0.09264550358057022,-1.204541563987732
1761585615615927800,7.545927734375,-1.963696002960205,-1.4078000783920288,-0.9410202503204346
1761585615625901600,7.555901611328125,-2.3027517795562744,-2.0399601459503174,-0.481879323720932
1761585615635874600,7.56587451171875,-2.47831654548645,-1.9169888496398926,0.07627391070127487
1761585615645848600,7.5758486328125,-2.3672499656677246,-1.6820690631866455,0.5513509511947632
1761585615655822600,7.585822509765625,-2.0536065101623535,-1.5039095878601074,0.9805298447608948
1761585615665795600,7.595795654296875,-1.5882567167282104,-1.3889366388320923,1.5488052368164062
1761585615675769600,7.60576953125,-1.207658290863037,-0.9702995419502258,1.9158837795257568
1761585615685743600,7.61574365234375,-1.0831149816513062,-0.7363607883453369,1.903441309928894
1761585615695717600,7.625717529296875,-1.1789406538009644,-0.9018974900245667,1.6915276050567627
1761585615705690600,7.635690673828125,-1.4940738677978516,-1.3587939739227295,1.286460041999817
1761585615715664600,7.64566455078125,-1.9929614067077637,-1.6852470636367798,0.6971153020858765
1761585615725638700,7.655638671875,-2.608290195465088,-2.216053009033203,0.27572548389434814
1761585615735612700,7.66561279296875,-3.258542537689209,-2.9592037200927734,0.006718388758599758
1761585615745585700,7.675585693359375,-3.88045334815979,-3.0994770526885986,-0.19326050579547882
1761585615755559700,7.6855595703125,-4.272654056549072,-2.943869113922119,-0.3565603494644165
1761585615765533700,7.69553369140625,-4.4260430335998535,-3.186170816421509,-0.5084680914878845
1761585615775506400,7.70550634765625,-4.508336544036865,-3.5920357704162598,-0.6966155171394348
1761585615785480400,7.71548046875,-4.48138427734375,-4.048836708068848,-0.9879472255706787
1761585615795454500,7.725454345703125,-4.314633846282959,-4.244948387145996,-1.3512009382247925
1761585615805428500,7.735428466796875,-4.104620933532715,-4.194811820983887,-1.6843730211257935
1761585615815401500,7.7454013671875,-4.051002502441406,-3.093918561935425,-1.2679685354232788
1761585615825375500,7.75537548828125,-4.365736484527588,-2.9665234088897705,-0.030126135796308517
1761585615835349500,7.765349609375,-4.888028621673584,-2.7477898597717285,0.8746891617774963
1761585615845323500,7.775323486328125,-5.326387405395508,-2.897372245788574,1.4900401830673218
1761585615855296500,7.785296630859375,-5.8031439781188965,-3.197152853012085,1.511359691619873
1761585615865270500,7.7952705078125,-6.381322383880615,-3.417604684829712,1.136055827140808
1761585615875244500,7.80524462890625,-6.752311706542969,-3.385652542114258,0.6592652201652527
1761585615885217800,7.8152177734375,-6.716283321380615,-3.2163727283477783,0.266864150762558
1761585615895191600,7.825191650390625,-6.367868423461914,-2.9354214668273926,0.011553091928362846
1761585615905165600,7.83516552734375,-5.8967437744140625,-2.5850894451141357,-0.11446689069271088
1761585615915139600,7.8451396484375,-5.432070732116699,-2.2468740940093994,-0.13385099172592163
1761585615925112600,7.855112548828125,-5.025331497192383,-2.0344364643096924,-0.07156632095575333
1761585615935086600,7.865086669921875,-4.685492038726807,-1.909469485282898,0.04017498716711998
1761585615945060600,7.875060546875,-4.403497219085693,-1.2797775268554688,0.446474552154541
1761585615955034400,7.885034423828125,-4.010449409484863,-1.3172495365142822,0.9259241223335266
1761585615965007600,7.895007568359375,-3.7451484203338623,-1.2257393598556519,1.233561396598816
1761585615974981600,7.904981689453125,-3.583853244781494,-1.2393380403518677,1.313899040222168
1761585615984955600,7.91495556640625,-3.5639708042144775,-1.2657767534255981,1.2274991273880005
1761585615994928600,7.9249287109375,-3.5983691215515137,-1.466892957687378,1.068566918373108
1761585616004902700,7.934902587890625,-3.692993640899658,-1.6580138206481934,0.8662282228469849
1761585616014876700,7.944876708984375,-3.9153027534484863,-1.7796310186386108,0.6168663501739502
1761585616024850700,7.9548505859375,-4.223032474517822,-1.9662340879440308,0.3634463846683502
1761585616034823700,7.96482373046875,-4.577347755432129,-2.098851203918457,0.146141916513443
1761585616044797700,7.974797607421875,-4.946438312530518,-2.0903422832489014,-0.0071602812968194485
1761585616054771700,7.984771728515625,-5.298548221588135,-2.131742000579834,-0.11805099248886108
1761585616064744400,7.994744384765625,-5.552708625793457,-1.988191843032837,-0.22732022404670715
1761585616074718500,8.004718505859374,-5.607481479644775,-1.8778202533721924,-0.30474716424942017
1761585616084690700,8.014690673828126,-5.4535698890686035,-1.7313168048858643,-0.3360142409801483
1761585616094664400,8.02466455078125,-5.159038066864014,-1.4917806386947632,-0.30630162358283997
1761585616104638500,8.034638427734375,-4.787613391876221,-1.3040119409561157,-0.22618092596530914
1761585616114612500,8.044612548828125,-4.4650702476501465,-1.2535234689712524,-0.0840887650847435
1761585616124585700,8.054585693359375,-4.274075508117676,-1.189770221710205,0.10209362208843231
1761585616134559700,8.064559814453125,-4.145707607269287,-1.02779221534729,0.3447811007499695
1761585616144533800,8.07453369140625,-4.06294059753418,-0.8518624305725098,0.6160462498664856
1761585616154507500,8.084507568359374,-3.949934244155884,-0.692325234413147,0.8452048897743225
1761585616164480800,8.094480712890626,-3.788173198699951,-0.6258512139320374,0.9784145355224609
1761585616174454800,8.104454833984375,-3.665015935897827,-0.4377577304840088,0.983799397945404
1761585616184428800,8.1144287109375,-3.786630868911743,-0.45197680592536926,0.8534342050552368
1761585616194401500,8.124401611328125,-3.958993911743164,-0.40934786200523376,0.5942191481590271
1761585616204375600,8.13437548828125,-4.008513450622559,-0.3957173228263855,0.2950645685195923
1761585616214349600,8.144349609375,-3.993257999420166,-0.44516637921333313,0.10599931329488754
1761585616224323600,8.154323486328124,-3.978647232055664,-0.47257018089294434,0.049754273146390915
1761585616234296600,8.164296630859376,-3.8925254344940186,-0.3938599228858948,0.07227049767971039
1761585616244270600,8.1742705078125,-3.7193753719329834,-0.37064725160598755,0.11131773144006729
1761585616254244600,8.18424462890625,-3.5176169872283936,-0.4359684884548187,0.1529964655637741
1761585616264218600,8.194218505859375,-3.400697708129883,-0.3886605203151703,0.2609107494354248
1761585616274191600,8.204191650390625,-3.240784168243408,-0.2429286241531372,0.39333534240722656
1761585616284165600,8.21416552734375,-2.9507129192352295,-0.17384757101535797,0.4853571653366089
1761585616294139600,8.2241396484375,-2.537132978439331,-0.18637613952159882,0.519188404083252
1761585616304112600,8.234112548828126,-2.1582624912261963,-0.22592194378376007,0.5056328773498535
1761585616314086700,8.244086669921876,-1.8931933641433716,-0.21907389163970947,0.4747857451438904
1761585616324060700,8.254060791015625,-1.7302533388137817,-0.2549702227115631,0.4635298550128937
1761585616334034700,8.26403466796875,-1.6252027750015259,-0.2831379473209381,0.45805761218070984
1761585616344007400,8.27400732421875,-1.6799068450927734,-0.3109290897846222,0.45074161887168884
1761585616353981400,8.2839814453125,-2.0667917728424072,-0.22954264283180237,0.49626997113227844
1761585616363955500,8.29395556640625,-2.596855401992798,-0.0779230147600174,0.6086266040802002
1761585616373929500,8.303929443359374,-3.068159818649292,0.0019047046080231667,0.8100209832191467
1761585616383902500,8.31390234375,-3.382143497467041,0.08154437690973282,1.033355474472046
1761585616393876500,8.32387646484375,-3.419027090072632,0.12748736143112183,1.1535735130310059
1761585616403850500,8.3338505859375,-3.1013100147247314,0.07989488542079926,1.0959506034851074
1761585616413823500,8.343823486328125,-2.5781779289245605,-0.1767454296350479,0.8675874471664429
1761585616423797500,8.353797607421875,-2.1635468006134033,-0.5146472454071045,0.5865207314491272
1761585616433771500,8.363771484375,-1.902665615081787,-0.5576573014259338,0.32558903098106384
1761585616443745500,8.37374560546875,-1.661450982093811,-0.3384326994419098,0.13292117416858673
1761585616453718800,8.38371875,-1.3534563779830933,-0.2789427638053894,0.007564045488834381
1761585616463692500,8.393692626953126,-0.9553828835487366,-0.13660137355327606,-0.07804153114557266
1761585616473666600,8.40366650390625,-0.6208176612854004,0.06469926238059998,-0.0809989720582962
1761585616483639600,8.4136396484375,-0.4861485958099365,0.10822301357984543,-0.036855168640613556
1761585616493613600,8.423613525390625,-0.49964043498039246,0.1017475351691246,-0.006795269902795553
1761585616503587600,8.433587646484375,-0.5806742906570435,0.0389988087117672,0.002216581255197525
1761585616513561600,8.4435615234375,-0.6978978514671326,-0.10560284554958344,-0.018731843680143356
1761585616523534800,8.453534912109374,-0.8585644364356995,-0.22546756267547607,-0.04068140313029289
1761585616533508900,8.4635087890625,-1.0048595666885376,-0.2884840667247772,-0.04936730116605759
1761585616543483000,8.47348291015625,-1.0905083417892456,-0.35200896859169006,-0.06786873936653137
1761585616553457000,8.483456787109375,-1.124318242073059,-0.284807026386261,-0.10906757414340973
1761585616563429600,8.4934296875,-1.1135127544403076,-0.10000026226043701,-0.17917340993881226
1761585616573403600,8.503403564453125,-1.1673506498336792,-0.12161394953727722,-0.3363126814365387
1761585616583377700,8.513377685546875,-1.2736718654632568,-0.12483598291873932,-0.5592432022094727
1761585616593350700,8.5233505859375,-1.352121353149414,-0.06559929251670837,-0.7978957295417786
1761585616603324700,8.53332470703125,-1.363530158996582,-0.058875009417533875,-0.9915793538093567
1761585616613298700,8.543298583984376,-1.2797199487686157,0.014707863330841064,-1.1522314548492432
1761585616623272700,8.553272705078125,-1.0965110063552856,0.0493936724960804,-1.2772740125656128
1761585616633245700,8.56324560546875,-0.8893689513206482,0.04709616303443909,-1.3625787496566772
1761585616643219700,8.5732197265625,-0.7338842749595642,0.20292000472545624,-1.3946963548660278
1761585616653193700,8.58319384765625,-0.6064858436584473,0.36238449811935425,-1.3839118480682373
1761585616663167700,8.593167724609375,-0.4322499930858612,0.44665294885635376,-1.3317875862121582
1761585616673140700,8.603140625,-0.12225271761417389,0.6149269342422485,-1.2249083518981934
1761585616683114800,8.61311474609375,0.31983140110969543,0.3566496670246124,-1.214704155921936
1761585616693088800,8.6230888671875,0.8164030909538269,0.21122615039348602,-1.2430119514465332
1761585616703061800,8.633061767578125,1.3577147722244263,0.08360052853822708,-1.281774878501892
1761585616713035800,8.643035888671875,1.8049505949020386,0.13908828794956207,-1.3419958353042603
1761585616723009500,8.653009521484375,2.0013294219970703,0.27869147062301636,-1.3905519247055054
1761585616732983600,8.662983642578125,1.9882813692092896,0.37776604294776917,-1.4213486909866333
1761585616742956500,8.67295654296875,1.8242870569229126,0.3972395956516266,-1.396877646446228
1761585616752930600,8.6829306640625,1.5780245065689087,0.2965035140514374,-1.2753978967666626
1761585616762904600,8.692904541015626,1.1994128227233887,0.2810366749763489,-1.0703887939453125
1761585616772877600,8.702877685546875,0.6241201758384705,0.14940007030963898,-0.8273607492446899
1761585616782851600,8.7128515625,-0.06939493864774704,0.0615658201277256,-0.6230978965759277
1761585616792825600,8.72282568359375,-0.874934196472168,0.06913471221923828,-0.4309307336807251
1761585616802799600,8.732799560546875,-1.7246218919754028,-0.07223173975944519,-0.21648846566677094
1761585616812772900,8.74277294921875,-2.461252450942993,-0.08822697401046753,0.011300787329673767
1761585616822747000,8.752746826171874,-2.9983742237091064,0.02072960138320923,0.2795783281326294
1761585616832720600,8.762720703125,-3.1705994606018066,0.30155131220817566,0.6117758750915527
1761585616842694700,8.772694580078126,-2.8922038078308105,0.5050956606864929,0.9814852476119995
1761585616852668000,8.78266796875,-2.337628126144409,0.5526905059814453,1.3363687992095947
1761585616862642000,8.792641845703125,-1.6290366649627686,0.7285299301147461,1.5426467657089233
1761585616872616000,8.802615966796875,-1.0364187955856323,0.7720364928245544,1.6003621816635132
1761585616882588700,8.812588623046874,-0.6265622973442078,0.6410590410232544,1.6511390209197998
1761585616892562700,8.822562744140624,-0.2504473328590393,0.49805471301078796,1.7067358493804932
1761585616902536700,8.83253662109375,0.14250394701957703,0.33805251121520996,1.6767406463623047
1761585616912510700,8.8425107421875,0.541281521320343,0.08527156710624695,1.6082737445831299
1761585616922483700,8.852483642578125,0.9219566583633423,-0.17627109587192535,1.5555434226989746
1761585616932457700,8.862457763671875,1.1888800859451294,-0.36835888028144836,1.4875719547271729
1761585616942431700,8.872431640625,1.2993601560592651,-0.0610031858086586,1.1513854265213013
1761585616952405800,8.88240576171875,1.3209335803985596,0.00911029800772667,0.8229631185531616
1761585616962378800,8.892378662109374,1.2978748083114624,0.21666455268859863,0.4968356192111969
1761585616972352800,8.902352783203124,1.18858003616333,0.5055279731750488,0.1412467509508133
1761585616982326800,8.912326904296876,1.0005789995193481,0.5845292806625366,-0.15921133756637573
1761585616992299800,8.9222998046875,0.8068743944168091,0.35463717579841614,-0.40191346406936646
1761585617002273800,8.932273681640625,0.6314657926559448,0.05788646265864372,-0.6328340768814087
1761585617012247800,8.942247802734375,0.4629141390323639,-0.14761248230934143,-0.909372866153717
1761585617022221800,8.952221923828125,0.32344678044319153,-0.2658211588859558,-1.2198466062545776
1761585617032194600,8.962194580078124,0.20783297717571259,-0.1811595857143402,-1.4934439659118652
1761585617042168600,8.97216845703125,0.11741067469120026,-0.03299089893698692,-1.6629072427749634
1761585617052142600,8.982142578125,0.10000813752412796,-0.06399480253458023,-1.7208771705627441
1761585617062116600,8.99211669921875,0.2846416234970093,-0.21278002858161926,-1.7098088264465332
1761585617072089600,9.002089599609375,0.614423930644989,-0.4584476351737976,-1.6722477674484253
1761585617082063600,9.012063720703125,1.0377404689788818,-0.7770897746086121,-1.62013578414917
1761585617092037600,9.02203759765625,1.5321805477142334,-0.8601877093315125,-1.5786439180374146
1761585617102010600,9.0320107421875,2.037518262863159,-0.6129661798477173,-1.5449455976486206
1761585617111984600,9.041984619140624,2.49981689453125,-0.2795269191265106,-1.5072046518325806
1761585617121958700,9.051958740234374,2.8161656856536865,-0.04980982095003128,-1.450608253479004
1761585617131932700,9.0619326171875,2.9198989868164062,0.0641418918967247,-1.382575511932373
1761585617141905700,9.07190576171875,2.8917477130889893,0.11062177270650864,-1.2800986766815186
1761585617151879700,9.081879638671875,2.7601072788238525,0.1694624423980713,-1.1206564903259277
1761585617161853700,9.091853759765625,2.545499086380005,0.19466473162174225,-0.9243480563163757
1761585617171826700,9.10182666015625,2.3508574962615967,0.5451200604438782,-0.7037419080734253
1761585617181800700,9.11180078125,2.2363178730010986,0.7978478670120239,-0.4258836805820465
1761585617191774700,9.121774658203124,2.1699087619781494,0.8740575909614563,-0.1320885568857193
1761585617201748700,9.131748779296874,2.0134694576263428,0.7250974178314209,0.1503777652978897
1761585617211721700,9.1417216796875,1.7921315431594849,0.5729562044143677,0.4145607054233551
1761585617221695700,9.15169580078125,1.5797884464263916,0.5690317749977112,0.6549109816551208
1761585617231669800,9.161669677734375,1.4160338640213013,0.7664732336997986,0.9125536680221558
1761585617241643800,9.171643798828125,1.333562970161438,1.0487151145935059,1.1926825046539307
1761585617251616800,9.18161669921875,1.3754956722259521,1.1953712701797485,1.4637340307235718
1761585617261590800,9.1915908203125,1.3835467100143433,0.9344765543937683,1.6681708097457886
1761585617271564800,9.201564697265624,1.3387024402618408,0.6312143206596375,1.7978763580322266
1761585617281537800,9.211537841796876,1.226444125175476,0.4653462767601013,1.8996381759643555
1761585617291511800,9.22151171875,1.0476551055908203,0.38584503531455994,1.9791326522827148
1761585617301485800,9.23148583984375,0.844063937664032,0.33527132868766785,2.027707576751709
1761585617311459800,9.2414599609375,0.6531240344047546,0.32680851221084595,2.0399112701416016
1761585617321432600,9.2514326171875,0.5045138001441956,0.3122918903827667,2.0043141841888428
1761585617331406600,9.261406494140624,0.4000462591648102,0.13678424060344696,1.910483956336975
1761585617341380600,9.271380615234374,0.33998534083366394,-0.07225926220417023,1.7494490146636963
1761585617351354600,9.281354736328124,0.3264232575893402,-0.15145297348499298,1.4777019023895264
1761585617361327600,9.29132763671875,0.3477775454521179,-0.13223160803318024,0.9847207069396973
1761585617371301600,9.301301513671875,0.38541287183761597,-0.31000012159347534,0.4689730107784271
1761585617381275600,9.311275634765625,0.39145877957344055,-0.3920830190181732,0.027167901396751404
1761585617391248600,9.32124853515625,0.3703252375125885,-0.24930894374847412,-0.3625037968158722
1761585617401222700,9.33122265625,0.4096963405609131,-0.06742116063833237,-0.6635619401931763
1761585617411196700,9.34119677734375,0.539911687374115,-0.06092486530542374,-0.8679277300834656
1761585617421170700,9.351170654296874,0.7089797854423523,-0.04495495557785034,-0.9958744645118713
1761585617431143700,9.361143798828126,0.8367877006530762,0.09344465285539627,-1.0286498069763184
1761585617441117700,9.37111767578125,0.9203941822052002,0.16915859282016754,-0.9660927653312683
1761585617451091700,9.381091796875,0.9991518259048462,0.16526317596435547,-0.8784067034721375
1761585617461064700,9.391064697265625,1.0637656450271606,0.12884390354156494,-0.7981951832771301
1761585617471038700,9.401038818359375,1.1122210025787354,0.11847523599863052,-0.7491854429244995
1761585617481012700,9.4110126953125,1.141400933265686,0.19147327542304993,-0.7008714079856873
1761585617490986500,9.420986572265624,1.1375226974487305,0.30284059047698975,-0.6325271129608154
1761585617500959700,9.430959716796876,1.109169363975525,0.3981601893901825,-0.5587871074676514
1761585617510933800,9.440933837890626,1.0668829679489136,0.5037536025047302,-0.5062410235404968
1761585617520907500,9.450907470703125,1.0326600074768066,0.6218581199645996,-0.4605073630809784
1761585617530881300,9.46088134765625,1.042578935623169,0.7226832509040833,-0.42942115664482117
1761585617540854300,9.470854248046875,1.081297516822815,0.8061179518699646,-0.412244588136673
1761585617550828300,9.480828369140625,1.0854873657226562,0.7532531023025513,-0.41175588965415955
1761585617560802300,9.49080224609375,1.0159695148468018,0.6481810212135315,-0.42382562160491943
1761585617570775300,9.500775390625,0.8656237125396729,0.5760689377784729,-0.42900145053863525
1761585617580749300,9.510749267578126,0.6742047667503357,0.5088821649551392,-0.3796618580818176
1761585617590723300,9.520723388671875,0.5201992392539978,0.3905918300151825,-0.2929339110851288
1761585617600697300,9.530697265625,0.4126751720905304,0.3601683974266052,-0.17482003569602966
1761585617610670300,9.54067041015625,0.32288026809692383,0.4569805860519409,-0.03787007927894592
1761585617620644400,9.550644287109375,0.3016979992389679,0.5222207903862,0.06430874764919281
1761585617630618400,9.560618408203124,0.34996914863586426,0.5011265873908997,0.09351912885904312
1761585617640592400,9.57059228515625,0.4262056052684784,0.4227047562599182,0.05741811543703079
1761585617650565400,9.5805654296875,0.49762383103370667,0.3971453011035919,-0.013874873518943787
1761585617660539400,9.590539306640625,0.5636166334152222,0.4014473855495453,-0.09872610867023468
1761585617670513400,9.600513427734375,0.6143922209739685,0.4126516878604889,-0.16415935754776
1761585617680486400,9.610486328125,0.6214565634727478,0.43262991309165955,-0.1961340606212616
1761585617690460400,9.62046044921875,0.5998907089233398,0.37502145767211914,-0.1861482858657837
1761585617700434400,9.630434326171875,0.575218915939331,0.3022862672805786,-0.13460147380828857
1761585617710408200,9.640408203125,0.554837703704834,0.39376214146614075,-0.06287272274494171
1761585617720381200,9.650381103515626,0.5451781749725342,0.5881193280220032,0.027418022975325584
1761585617730355200,9.660355224609376,0.6014907360076904,0.7552004456520081,0.10721112042665482
1761585617740329200,9.6703291015625,0.7281849980354309,0.8705606460571289,0.15327048301696777
1761585617750303200,9.68030322265625,0.8889434337615967,0.9600362777709961,0.15367378294467926
1761585617760276200,9.690276123046875,1.0208154916763306,1.056578278541565,0.1300901621580124
1761585617770250200,9.700250244140625,1.1142442226409912,1.147767424583435,0.09312911331653595
1761585617780224300,9.710224365234374,1.168951392173767,1.1218132972717285,0.035703908652067184
1761585617790197200,9.720197265625,1.1838922500610352,1.100381851196289,-0.006093716714531183
1761585617800171300,9.730171142578126,1.1768858432769775,1.0509098768234253,-0.014824092388153076
1761585617810145300,9.740145263671875,1.1798982620239258,0.9387745261192322,-0.02134305238723755
1761585617820119300,9.750119384765625,1.2026653289794922,0.7542968392372131,-0.009928477928042412
1761585617830092500,9.760092529296875,1.2252287864685059,0.541304349899292,0.028604663908481598
1761585617840066600,9.770066650390625,1.2225651741027832,0.4505678415298462,0.09378979355096817
1761585617850040300,9.780040283203125,1.1987109184265137,0.4154707193374634,0.16706065833568573
1761585617860013300,9.790013427734374,1.1524333953857422,0.32816964387893677,0.19475434720516205
1761585617869987300,9.7999873046875,1.0992671251296997,0.3012595772743225,0.15040339529514313
1761585617879961300,9.80996142578125,1.0656471252441406,0.3671075701713562,0.035052843391895294
1761585617889935400,9.819935302734375,1.0518149137496948,0.44138994812965393,-0.11941930651664734
1761585617899908400,9.829908447265625,1.0417699813842773,0.45847412943840027,-0.24944068491458893
1761585617909882400,9.83988232421875,1.004416584968567,0.5010503530502319,-0.3115328252315521
1761585617919856400,9.8498564453125,0.9142195582389832,0.5601701140403748,-0.29290536046028137
1761585617929830400,9.859830322265625,0.7918990254402161,0.4747273027896881,-0.2495022714138031
1761585617939803400,9.869803466796874,0.6932992339134216,0.3027493953704834,-0.22013692557811737
1761585617949777400,9.87977734375,0.6300687193870544,0.0898134782910347,-0.21502797305583954
1761585617959751400,9.88975146484375,0.6240091919898987,-0.052342064678668976,-0.22283929586410522
1761585617969724400,9.899724365234375,0.6486225128173828,-0.14091169834136963,-0.20940372347831726
1761585617979698400,9.909698486328125,0.6689823865890503,-0.2532028257846832,-0.17013807594776154
1761585617989672400,9.91967236328125,0.677327573299408,-0.3854670226573944,-0.1332596391439438
1761585617999646500,9.929646484375,0.6599874496459961,-0.4803663492202759,-0.1078147366642952
1761585618009619200,9.939619140625,0.6240804195404053,-0.5544942617416382,-0.08386905491352081
1761585618019593200,9.94959326171875,0.5784381031990051,-0.6054461002349854,-0.07451044023036957
1761585618029567200,9.959567138671876,0.5365405082702637,-0.6394180059432983,-0.07936079055070877
1761585618039541200,9.969541259765625,0.5296895503997803,-0.5694727301597595,-0.14057888090610504
1761585618049514200,9.97951416015625,0.5628979802131653,-0.4286120533943176,-0.2709835469722748
1761585618059488300,9.98948828125,0.593629777431488,-0.2644582688808441,-0.431830495595932
1761585618069462300,9.999462158203125,0.5689102411270142,-0.05973022058606148,-0.5836598873138428
1761585618079435300,10.009435302734374,0.4916359484195709,0.12894542515277863,-0.6743050813674927
1761585618089409300,10.0194091796875,0.41714146733283997,0.2194613218307495,-0.6974726915359497
1761585618099383300,10.02938330078125,0.37551918625831604,0.2620522081851959,-0.6472108364105225
1761585618109357300,10.039357421875,0.330400288105011,0.24867571890354156,-0.5215403437614441
1761585618119330300,10.049330322265625,0.2382003217935562,0.145866259932518,-0.2927386164665222
1761585618129304300,10.05930419921875,0.1693457067012787,-0.00321771833114326,-0.05244804918766022
1761585618139278300,10.0692783203125,0.1699555665254593,-0.13166038691997528,0.1209852546453476
1761585618149252400,10.07925244140625,0.21417994797229767,-0.26340726017951965,0.19929318130016327
1761585618159225300,10.089225341796874,0.2705915570259094,-0.36892515420913696,0.20645815134048462
1761585618169199000,10.09919921875,0.3118967115879059,-0.36253806948661804,0.16179393231868744
1761585618179173000,10.109173095703126,0.31238433718681335,-0.027569398283958435,0.1346813589334488
1761585618189146400,10.119146484375,0.2587680220603943,0.3523643910884857,0.14020898938179016
1761585618199120400,10.129120361328125,0.22561752796173096,0.49214544892311096,0.14983312785625458
1761585618209094400,10.139094482421875,0.1957465559244156,0.4033835232257843,0.14504337310791016
1761585618219068400,10.149068359375,0.13375402987003326,0.2238830029964447,0.1093817800283432
1761585618229041400,10.15904150390625,0.044496942311525345,0.04107781872153282,0.04587695747613907
1761585618239015400,10.169015380859374,-0.025402778759598732,-0.12085169553756714,-0.010288311168551445
1761585618248989400,10.178989501953126,-0.054105617105960846,-0.22523553669452667,-0.060223400592803955
1761585618258962400,10.18896240234375,-0.024070752784609795,-0.2759557068347931,-0.09543199092149734
1761585618268936400,10.1989365234375,0.05388476327061653,-0.25719669461250305,-0.09215470403432846
1761585618278910500,10.208910400390625,0.1351223587989807,-0.2142193764448166,-0.04317517951130867
1761585618288884500,10.218884521484375,0.19534605741500854,-0.18074926733970642,0.01134928036481142
1761585618298857200,10.228857177734374,0.2415897250175476,-0.24741750955581665,0.04969693347811699
1761585618308831200,10.238831298828124,0.2562970221042633,-0.3360537886619568,0.07819277793169022
1761585618318805200,10.24880517578125,0.24190635979175568,-0.3229566514492035,0.12057805061340332
1761585618328779300,10.258779296875,0.21120582520961761,-0.25450026988983154,0.15307828783988953
1761585618338752300,10.268752197265625,0.1464255005121231,-0.19583508372306824,0.16627559065818787
1761585618348726300,10.278726318359375,0.06239822506904602,-0.16651596128940582,0.14650295674800873
1761585618358700300,10.2887001953125,-0.024768901988863945,-0.1730380356311798,0.10320369154214859
1761585618368673300,10.29867333984375,-0.08958211541175842,-0.23740272223949432,0.0657782033085823
1761585618378647300,10.308647216796874,-0.1391744315624237,-0.31255659461021423,0.033997371792793274
1761585618388621300,10.318621337890624,-0.16206297278404236,-0.3210042715072632,0.01779353804886341
1761585618398595300,10.32859521484375,-0.14736579358577728,-0.3074069917201996,0.020880406722426414
1761585618408568300,10.338568359375,-0.10331473499536514,-0.22299516201019287,0.04473339393734932
1761585618418542300,10.348542236328125,-0.08148160576820374,-0.11775130033493042,0.06725575029850006
1761585618428516400,10.358516357421875,-0.1010696217417717,-0.06099957227706909,0.07500425726175308
1761585618438490400,10.368490478515625,-0.16073854267597198,0.017435049638152122,0.06423895806074142
1761585618448463400,10.37846337890625,-0.24631570279598236,0.012857375666499138,0.056156307458877563
1761585618458437400,10.388437255859374,-0.2955527603626251,-0.12520062923431396,0.04233982786536217
1761585618468411400,10.398411376953124,-0.2987355589866638,-0.16009792685508728,0.042106226086616516
1761585618478384400,10.40838427734375,-0.24944204092025757,-0.04601103439927101,0.05939999595284462
1761585618488358100,10.418358154296875,-0.156163290143013,0.2067255824804306,0.09492972493171692
1761585618498332200,10.428332275390625,-0.04923924803733826,0.5126575231552124,0.16471998393535614
1761585618508306200,10.43830615234375,0.06877928972244263,0.7162665724754333,0.226910799741745
1761585618518279700,10.44827978515625,0.1357271671295166,0.694320797920227,0.2386620044708252
1761585618528253400,10.45825341796875,0.11384619027376175,0.498884916305542,0.1733652502298355
1761585618538227500,10.4682275390625,0.06293374300003052,0.14733728766441345,0.05863972753286362
1761585618548200700,10.47820068359375,0.05078333616256714,-0.16933999955654144,-0.025847461074590683
1761585618558174700,10.4881748046875,0.08136015385389328,-0.3257509171962738,-0.08401969075202942
1761585618568148700,10.498148681640625,0.09985600411891937,-0.416660338640213,-0.079221710562706
1761585618578122500,10.50812255859375,0.11061304062604904,-0.31498485803604126,-0.061059750616550446
1761585618588095500,10.518095458984375,0.17986749112606049,-0.15217901766300201,-0.08033428341150284
1761585618598069500,10.528069580078125,0.2838583290576935,-0.07358674705028534,-0.1438770294189453
1761585618608043500,10.53804345703125,0.3997090458869934,0.015426228754222393,-0.24398298561573029
1761585618618017500,10.548017578125,0.5778728723526001,0.1977536827325821,-0.3551451861858368
1761585618627990500,10.557990478515626,0.7751678824424744,0.3968416154384613,-0.433726966381073
1761585618637964500,10.567964599609375,0.9158685207366943,0.5456891655921936,-0.46767693758010864
1761585618647938600,10.5779384765625,0.9212565422058105,0.5589088201522827,-0.45801234245300293
1761585618657911600,10.58791162109375,0.7805274128913879,0.38924914598464966,-0.44695809483528137
1761585618667885600,10.597885498046875,0.5462762713432312,0.15134495496749878,-0.42565739154815674
1761585618677859600,10.607859619140624,0.2531633675098419,-0.09474284201860428,-0.3869645893573761
1761585618687833600,10.61783349609375,0.0024858007673174143,-0.26934877038002014,-0.34307795763015747
1761585618697806600,10.627806640625,-0.1360640823841095,-0.37229564785957336,-0.30093449354171753
1761585618707780600,10.637780517578125,-0.19842955470085144,-0.40761440992355347,-0.2481473833322525
1761585618717754600,10.647754638671875,-0.2054280787706375,-0.3968672454357147,-0.206717386841774
1761585618727728600,10.657728759765625,-0.1770227700471878,-0.37018516659736633,-0.18329603970050812
1761585618737701400,10.667701416015625,-0.15761923789978027,-0.2873251736164093,-0.15958884358406067
1761585618747675400,10.67767529296875,-0.152025043964386,-0.17286236584186554,-0.11721642315387726
1761585618757649400,10.6876494140625,-0.10996362566947937,-0.030238119885325432,-0.06792902946472168
1761585618767622400,10.697622314453126,-0.03619927912950516,0.03737799823284149,-0.006157808005809784
1761585618777596400,10.707596435546876,0.00950908474624157,0.054499462246894836,0.05337316170334816
1761585618787570400,10.7175703125,0.016839150339365005,0.046971894800662994,0.1225365400314331
1761585618797544400,10.72754443359375,-0.006742075551301241,0.01697191596031189,0.18507103621959686
1761585618807517400,10.737517333984375,-0.03922450169920921,-0.04410267993807793,0.23295553028583527
1761585618817491500,10.747491455078125,-0.056254349648952484,-0.10536444187164307,0.2753104269504547
1761585618827465500,10.757465576171874,-0.025565676391124725,-0.1402575820684433,0.317473441362381
1761585618837439500,10.767439453125,0.026606980711221695,-0.13471953570842743,0.3563622534275055
1761585618847412500,10.77741259765625,0.05230804532766342,-0.09427877515554428,0.3726496994495392
1761585618857386500,10.787386474609375,0.012711369432508945,-0.078795425593853,0.35093429684638977
1761585618867360500,10.797360595703125,-0.08306688070297241,-0.11363133043050766,0.30163657665252686
1761585618877333500,10.80733349609375,-0.17412248253822327,-0.19440288841724396,0.23766210675239563
1761585618887307500,10.8173076171875,-0.20761330425739288,-0.258609801530838,0.2006857991218567
1761585618897281500,10.827281494140625,-0.1883743703365326,-0.25607767701148987,0.1863766312599182
1761585618907255300,10.83725537109375,-0.13894280791282654,-0.22220195829868317,0.198688805103302
1761585618917228500,10.847228515625,-0.0769185870885849,-0.16508567333221436,0.20241829752922058
1761585618927202600,10.85720263671875,-0.01982778124511242,-0.08082455396652222,0.19654083251953125
1761585618937176600,10.867176513671875,0.03349829092621803,0.02133137360215187,0.20222188532352448
1761585618947149600,10.877149658203125,0.07724490016698837,0.0979040116071701,0.22386711835861206
1761585618957123600,10.88712353515625,0.1276734620332718,0.15462082624435425,0.2481386363506317
1761585618967097600,10.89709765625,0.18348819017410278,0.23243092000484467,0.26328280568122864
1761585618977071600,10.907071533203125,0.22931267321109772,0.30220121145248413,0.2353619635105133
1761585618987044600,10.917044677734374,0.26414579153060913,0.448398232460022,0.1609342396259308
1761585618997018600,10.9270185546875,0.19173577427864075,0.5231233835220337,0.050385892391204834
1761585619006992600,10.93699267578125,0.06492414325475693,0.369172066450119,-0.05031265318393707
1761585619016966700,10.946966552734375,-0.07005657255649567,0.14860904216766357,-0.10702653229236603
1761585619026939400,10.956939453125,-0.17590636014938354,-0.03237753361463547,-0.1134776622056961
1761585619036913400,10.966913330078125,-0.21616776287555695,-0.14011839032173157,-0.06974935531616211
1761585619046887400,10.976887451171875,-0.20696407556533813,-0.1832045614719391,-0.0011518807150423527
1761585619056860400,10.9868603515625,-0.15384440124034882,-0.14461882412433624,0.05976073816418648
1761585619066834400,10.99683447265625,-0.09792272001504898,-0.06359902769327164,0.08439189940690994
1761585619076808400,11.006808349609376,-0.06228962540626526,-0.002848060568794608,0.05503161624073982
1761585619086782500,11.016782470703125,-0.05530750751495361,0.0040081702172756195,0.018194077536463737
1761585619096755500,11.02675537109375,-0.05619354173541069,0.00804179348051548,0.009388335049152374
1761585619106729500,11.0367294921875,-0.028980515897274017,0.014352841302752495,0.025608643889427185
1761585619116703500,11.046703369140625,0.01999128796160221,0.05812322348356247,0.04424198344349861
1761585619126677500,11.056677490234375,0.07754064351320267,0.13963714241981506,0.03713646158576012
1761585619136650500,11.066650390625,0.12330679595470428,0.24268150329589844,0.008191630244255066
1761585619146624500,11.07662451171875,0.1426672339439392,0.3441992700099945,-0.019895445555448532
1761585619156598500,11.0865986328125,0.14535942673683167,0.3780807852745056,-0.05536981672048569
1761585619166571300,11.0965712890625,0.16961036622524261,0.40726298093795776,-0.07881371676921844
1761585619176545300,11.106545166015625,0.18426866829395294,0.4313448965549469,-0.09577272832393646
1761585619186519300,11.116519287109375,0.16021689772605896,0.28827670216560364,-0.17564842104911804
1761585619196493300,11.126493408203125,0.07297229021787643,0.08807969093322754,-0.30217787623405457
1761585619206466600,11.136466552734374,-0.024274397641420364,-0.10329560190439224,-0.41021546721458435
1761585619216440300,11.1464404296875,-0.13868141174316406,-0.22384998202323914,-0.4556085169315338
1761585619226414300,11.156414306640626,-0.23022234439849854,-0.3331083655357361,-0.4493207335472107
1761585619236387600,11.1663876953125,-0.2562832534313202,-0.3693489134311676,-0.41408923268318176
1761585619246361600,11.176361572265625,-0.235663503408432,-0.3370414674282074,-0.36794131994247437
1761585619256335600,11.186335693359375,-0.18482881784439087,-0.2806248068809509,-0.32630011439323425
1761585619266309400,11.196309326171875,-0.12748052179813385,-0.21526840329170227,-0.28669869899749756
1761585619276282600,11.20628271484375,-0.09052037447690964,-0.1726578325033188,-0.2619270384311676
1761585619286256600,11.216256591796874,-0.0826755240559578,-0.14178472757339478,-0.25421449542045593
1761585619296230700,11.226230712890626,-0.09372711181640625,-0.11452648788690567,-0.26177603006362915
1761585619306204700,11.23620458984375,-0.100832000374794,-0.10137612372636795,-0.2598470151424408
1761585619316177700,11.246177734375,-0.09519435465335846,-0.0938311219215393,-0.24850568175315857
1761585619326151700,11.256151611328125,-0.05607036501169205,-0.0657574012875557,-0.23142623901367188
1761585619336125700,11.266125732421875,0.002532227197661996,-0.03918996825814247,-0.2208966314792633
1761585619346098400,11.276098388671874,0.03818054497241974,-0.015451193787157536,-0.21094246208667755
1761585619356072400,11.286072509765624,0.037746984511613846,0.00432144571095705,-0.20362542569637299
1761585619366046500,11.29604638671875,0.021697068586945534,0.03882623463869095,-0.19641155004501343
1761585619376020500,11.3060205078125,0.012321408838033676,0.07235916703939438,-0.18699248135089874
1761585619385993500,11.315993408203125,0.013520448468625546,0.11102497577667236,-0.17665407061576843
1761585619395967500,11.325967529296875,0.01948539912700653,0.14458081126213074,-0.16586267948150635
1761585619405941500,11.33594140625,0.020094508305191994,0.16414667665958405,-0.14909988641738892
1761585619415915500,11.34591552734375,0.035809822380542755,0.16258472204208374,-0.1394488513469696
1761585619425888500,11.355888427734374,0.04639092832803726,0.16305269300937653,-0.1317877322435379
1761585619435862500,11.365862548828124,0.027315236628055573,0.14593788981437683,-0.13311637938022614
1761585619445836500,11.37583642578125,-0.012879084795713425,0.11333931982517242,-0.13579592108726501
1761585619455809500,11.3858095703125,-0.043037254363298416,0.0313459187746048,-0.13057586550712585
1761585619465783600,11.395783447265625,-0.06245660409331322,-0.08734377473592758,-0.10056117177009583
1761585619475757600,11.405757568359375,-0.06746121495962143,-0.14953842759132385,-0.06720428168773651
1761585619485731600,11.415731689453125,-0.053098611533641815,-0.13454768061637878,-0.035635191947221756
1761585619495704300,11.425704345703124,-0.02489839680492878,-0.055355921387672424,-0.004062353633344173
1761585619505678300,11.43567822265625,-0.00440987991169095,0.0002286557573825121,0.02457726188004017
1761585619515652400,11.44565234375,-0.0002928993199020624,0.005924092140048742,0.02421560510993004
1761585619525629700,11.455629638671875,0.009920547716319561,-0.044233109802007675,0.003903181292116642
1761585619535603700,11.465603759765624,0.003187543945387006,-0.09809260815382004,-0.030936026945710182
1761585619545577700,11.47557763671875,-0.01912657357752323,-0.13252410292625427,-0.0586223304271698
1761585619555551700,11.4855517578125,-0.02585025504231453,-0.17314156889915466,-0.06474653631448746
1761585619565524700,11.495524658203125,-0.0036145595367997885,-0.2459554821252823,-0.05766540393233299
1761585619575498800,11.505498779296875,0.020992783829569817,-0.31083542108535767,-0.06660669296979904
1761585619585472800,11.51547265625,0.019777173176407814,-0.33446067571640015,-0.09051652997732162
1761585619595446800,11.52544677734375,0.013017271645367146,-0.31597378849983215,-0.10860365629196167
1761585619605419800,11.535419677734374,0.025889325886964798,-0.27157801389694214,-0.11324009299278259
1761585619615393800,11.545393798828124,0.048683054745197296,-0.23399868607521057,-0.10167345404624939
1761585619625367800,11.555367919921874,0.0643342062830925,-0.21648240089416504,-0.06830193102359772
1761585619635341000,11.565341064453126,0.08439047634601593,-0.16393184661865234,-0.015383856371045113
1761585619645314800,11.575314697265625,0.116285040974617,-0.05133243650197983,0.05450652912259102
1761585619655288800,11.585288818359375,0.1526813954114914,0.07674563676118851,0.14305025339126587
1761585619665262800,11.595262939453125,0.1696477085351944,0.15590082108974457,0.21414822340011597
1761585619675236000,11.605236083984375,0.14864255487918854,0.18320222198963165,0.2339126020669937
1761585619685209900,11.6152099609375,0.09710045903921127,0.2420244812965393,0.212741881608963
1761585619695184000,11.625183837890624,0.07873716205358505,0.24068623781204224,0.18951484560966492
1761585619705156900,11.635156982421876,0.09703825414180756,0.23500099778175354,0.2015399932861328
1761585619715131000,11.645130859375,0.13228678703308105,0.2394556701183319,0.24126769602298737
1761585619725105000,11.65510498046875,0.15750841796398163,0.2121100127696991,0.275460809469223
1761585619735079000,11.665078857421875,0.14240163564682007,0.17484518885612488,0.29618099331855774
1761585619745052000,11.675052001953125,0.08410726487636566,0.14992044866085052,0.3244265913963318
1761585619755026000,11.68502587890625,0.012981957755982876,0.19178374111652374,0.36755624413490295
1761585619765000000,11.695,-0.03335043042898178,0.28793248534202576,0.42421120405197144
1761585619774974000,11.704973876953124,-0.07180728018283844,0.38331228494644165,0.49751365184783936
1761585619784947000,11.714947021484376,-0.09338286519050598,0.41719499230384827,0.5605601072311401
1761585619794921000,11.7249208984375,-0.09412562102079391,0.4287717640399933,0.5986411571502686
1761585619804895000,11.73489501953125,-0.10740824043750763,0.39548712968826294,0.6112722754478455
1761585619814868000,11.744867919921875,-0.13118866086006165,0.26444414258003235,0.5677173733711243
1761585619824842000,11.754842041015625,-0.15046009421348572,0.061657629907131195,0.48345398902893066
1761585619834816000,11.76481591796875,-0.15408839285373688,-0.08726020902395248,0.39353713393211365
1761585619844790000,11.7747900390625,-0.1398501992225647,-0.11053870618343353,0.34429681301116943
1761585619854762800,11.7847626953125,-0.14439301192760468,-0.03857477009296417,0.367265522480011
1761585619864736800,11.79473681640625,-0.15455128252506256,0.0449148453772068,0.4035259187221527
1761585619874710800,11.804710693359375,-0.15058183670043945,0.08718453347682953,0.41337189078330994
1761585619884683800,11.814683837890625,-0.15895669162273407,0.09992310404777527,0.39782822132110596
1761585619894657800,11.82465771484375,-0.18538349866867065,0.06802162528038025,0.36395496129989624
1761585619904631800,11.8346318359375,-0.21070468425750732,0.06411990523338318,0.29046252369880676
1761585619914605800,11.844605712890624,-0.20147709548473358,0.04752069339156151,0.2054075449705124
1761585619924578800,11.854578857421876,-0.1797400712966919,0.0015345816500484943,0.18324629962444305
1761585619934552800,11.864552734375,-0.18033716082572937,0.01582297310233116,0.22001443803310394
1761585619944526800,11.87452685546875,-0.18271294236183167,0.05362188071012497,0.2605302631855011
1761585619954500900,11.8845009765625,-0.1566310077905655,0.039336685091257095,0.2714281976222992
1761585619964473900,11.894473876953125,-0.11237753927707672,0.026663370430469513,0.2739375829696655
1761585619974447900,11.90444775390625,-0.07410764694213867,0.047731105238199234,0.2935965061187744
1761585619984422000,11.914421875,-0.03556256741285324,0.038573604077100754,0.32647332549095154
1761585619994395000,11.924394775390626,-0.03002185747027397,-0.045426756143569946,0.38241755962371826
1761585620004369000,11.934368896484376,-0.06423906236886978,-0.16031278669834137,0.41954725980758667
1761585620014343000,11.944343017578126,-0.09953606128692627,-0.27445080876350403,0.4311884641647339
1761585620024316700,11.954316650390625,-0.136728897690773,-0.3818191885948181,0.4454980492591858
1761585620034290000,11.9642900390625,-0.1897076964378357,-0.48722097277641296,0.48602762818336487
1761585620044264000,11.974263916015625,-0.2238810509443283,-0.5350071787834167,0.5358491539955139
1761585620054238000,11.984238037109375,-0.2329198271036148,-0.5239854454994202,0.5542944669723511
1761585620064212000,11.9942119140625,-0.22210533916950226,-0.5026175379753113,0.5109712481498718
1761585620074185000,12.00418505859375,-0.1859518587589264,-0.40617993474006653,0.3216460645198822
1761585620084159000,12.014158935546876,-0.08751261234283447,-0.25804075598716736,-0.0022854413837194443
1761585620094133000,12.024133056640625,0.07234055548906326,-0.09415110945701599,-0.22456865012645721
1761585620104106000,12.03410595703125,0.22757115960121155,0.13328896462917328,-0.19605578482151031
1761585620114080000,12.044080078125,0.35183534026145935,0.32267117500305176,-0.05145096033811569
1761585620124054000,12.054053955078125,0.42840975522994995,0.43666407465934753,0.017234094440937042
1761585620134028000,12.064028076171875,0.4187886118888855,0.4125819206237793,-0.06705597043037415
1761585620144000800,12.074000732421876,0.32958096265792847,0.24576976895332336,-0.24848197400569916
1761585620153974800,12.083974853515626,0.17422674596309662,0.032257985323667526,-0.3476938009262085
1761585620163948800,12.09394873046875,0.04210412874817848,-0.08482895791530609,-0.34255897998809814
1761585620173921800,12.103921875,-0.014385701157152653,-0.11460600048303604,-0.33926627039909363
1761585620183895800,12.113895751953125,0.012080793268978596,-0.08787531405687332,-0.3546561300754547
1761585620193869800,12.123869873046875,0.05961955338716507,-0.009334822185337543,-0.4030523896217346
1761585620203843800,12.13384375,0.07747364789247513,0.0897773802280426,-0.4630403518676758
1761585620213816800,12.14381689453125,0.07603983581066132,0.14837412536144257,-0.5044702291488647
1761585620223790800,12.153790771484376,0.06179831176996231,0.13288891315460205,-0.49520164728164673
1761585620233764900,12.163764892578126,0.016999784857034683,0.042423367500305176,-0.48320817947387695
1761585620243737900,12.17373779296875,-0.03800727799534798,-0.10268322378396988,-0.4939689636230469
1761585620253712000,12.1837119140625,-0.08554636687040329,-0.2310994267463684,-0.5209165215492249
1761585620263686000,12.193685791015625,-0.1206902414560318,-0.3193003833293915,-0.555575430393219
1761585620273660000,12.203659912109375,-0.14070089161396027,-0.41658347845077515,-0.604883074760437
1761585620283632600,12.213632568359374,-0.13760922849178314,-0.5000166296958923,-0.6207773685455322
1761585620293606700,12.223606689453124,-0.13218943774700165,-0.5299734473228455,-0.6133774518966675
1761585620303580700,12.23358056640625,-0.13995735347270966,-0.5275166630744934,-0.6750003099441528
1761585620313554700,12.2435546875,-0.16565263271331787,-0.5891419649124146,-0.8723338842391968
1761585620323528000,12.25352783203125,-0.18289047479629517,-0.6460310816764832,-1.0512983798980713
1761585620333501700,12.263501708984375,-0.20356324315071106,-0.6700248718261719,-1.098578691482544
1761585620343475700,12.273475830078125,-0.20960861444473267,-0.6762577295303345,-1.0739878416061401
1761585620353449000,12.283448974609374,-0.15357425808906555,-0.5571731925010681,-0.9950178861618042
1761585620363423000,12.293423095703124,-0.09639111906290054,-0.4392390847206116,-0.834242582321167
1761585620373397000,12.30339697265625,-0.12723736464977264,-0.3690764605998993,-0.6182523965835571
1761585620383370800,12.313370849609376,-0.2017584592103958,-0.22870764136314392,-0.2957550883293152
1761585620393344000,12.323343994140625,-0.24237680435180664,-0.0691666230559349,-0.008769920095801353
1761585620403318000,12.333318115234375,-0.22201533615589142,0.03625514358282089,0.14498688280582428
1761585620413292000,12.3432919921875,-0.1443604826927185,0.0658789724111557,0.18662048876285553
1761585620423265000,12.35326513671875,-0.0109912334010005,0.07388310134410858,0.17535078525543213
1761585620433239000,12.363239013671874,0.11974149197340012,0.17239263653755188,0.19055789709091187
1761585620443213000,12.373213134765624,0.22341889142990112,0.31794822216033936,0.24076327681541443
1761585620453187000,12.38318701171875,0.27115941047668457,0.4102131426334381,0.2532801926136017
