time,seconds_elapsed,z,y,x
1761585608136883700,0.0668837890625,0.0012985573848709464,0.07513496279716492,-0.010157030075788498
1761585608146857700,0.076857666015625,0.0029766152147203684,0.10554666817188263,0.09029607474803925
1761585608156831700,0.086831787109375,0.007522897329181433,0.11168418824672699,0.17340481281280518
1761585608166804700,0.0968046875,0.02021019719541073,0.09503942728042603,0.2172585427761078
1761585608176778800,0.10677880859375,0.039680033922195435,0.06762724369764328,0.23629802465438843
1761585608186752800,0.116752685546875,0.05096491426229477,0.028145086020231247,0.23251420259475708
1761585608196726800,0.126726806640625,0.05670029670000076,-0.03291746973991394,0.20058663189411163
1761585608206699800,0.13669970703125,0.058516837656497955,-0.07426304370164871,0.15665672719478607
1761585608216673800,0.146673828125,0.05699191242456436,-0.08086475729942322,0.12646819651126862
1761585608226647800,0.156647705078125,0.05217345431447029,-0.0731932520866394,0.11283840239048004
1761585608236621800,0.166621826171875,0.04408969730138779,-0.05667952448129654,0.10871715843677521
1761585608246594800,0.1765947265625,0.032773394137620926,-0.02983725816011429,0.10924206674098969
1761585608256568800,0.18656884765625,0.027828700840473175,0.006852047052234411,0.10509072989225388
1761585608266542800,0.19654296875,0.020115654915571213,0.02810806781053543,0.08475643396377563
1761585608276515800,0.206515869140625,0.023741282522678375,0.02303927205502987,0.05151538923382759
1761585608286489600,0.216489501953125,0.025481924414634705,0.025121331214904785,0.011695804074406624
1761585608296463600,0.226463623046875,0.02690272033214569,0.022522352635860443,-0.026340261101722717
1761585608306437600,0.236437744140625,0.028835110366344452,0.01360209472477436,-0.04313815012574196
1761585608316411000,0.246410888671875,0.028729915618896484,0.01173495315015316,-0.040341030806303024
1761585608326385000,0.256385009765625,0.025437716394662857,0.003862382611259818,-0.03176005929708481
1761585608336359000,0.26635888671875,0.032345421612262726,-0.012182364240288734,-0.0178208090364933
1761585608346332000,0.276331787109375,0.03917696326971054,-0.03694763034582138,0.006028064992278814
1761585608356306000,0.286305908203125,0.04782184958457947,-0.05049646273255348,0.03383226692676544
1761585608366280000,0.296280029296875,0.044862281531095505,-0.05445338785648346,0.07099348306655884
1761585608376254000,0.30625390625,0.044912081211805344,-0.05433541163802147,0.08169832825660706
1761585608386227000,0.31622705078125,0.03406582400202751,-0.06429456919431686,0.06109904125332832
1761585608396201000,0.326200927734375,0.01666899211704731,-0.0554635263979435,0.0333331897854805
1761585608406175000,0.336175048828125,0.001261539408005774,-0.02883084863424301,0.006868558935821056
1761585608416147700,0.346147705078125,-0.0013888385146856308,-0.025432655587792397,-0.013220463879406452
1761585608426121700,0.356121826171875,0.007702394388616085,-0.05489787086844444,-0.019245333969593048
1761585608436095700,0.366095703125,0.010803112760186195,-0.08070283383131027,-0.013194898143410683
1761585608446069800,0.37606982421875,0.01119299978017807,-0.07806763797998428,-0.006773750297725201
1761585608456042800,0.386042724609375,0.016149675473570824,-0.044913943856954575,0.00606481684371829
1761585608466016800,0.396016845703125,0.022338062524795532,-0.009884854778647423,0.01846316270530224
1761585608475990800,0.40599072265625,0.026033997535705566,0.006646451074630022,0.03483308106660843
1761585608485963800,0.4159638671875,0.02474023401737213,0.008420648984611034,0.04833770543336868
1761585608495937800,0.425937744140625,0.009968211874365807,0.029230855405330658,0.05794106423854828
1761585608505911600,0.43591162109375,-0.003566771512851119,0.04173892363905907,0.06638088822364807
1761585608515885600,0.445885498046875,-0.007661115378141403,0.01973881758749485,0.05122137442231178
1761585608525858300,0.4558583984375,-0.012521917000412941,-0.019521502777934074,0.028858812525868416
1761585608535832300,0.465832275390625,-0.02233113907277584,-0.05434872582554817,0.024160197004675865
1761585608545806300,0.475806396484375,-0.0401865690946579,-0.07518556714057922,0.021472269669175148
1761585608555779600,0.485779541015625,-0.04760986194014549,-0.06934232264757156,0.037032585591077805
1761585608565753300,0.49575341796875,-0.03179521486163139,-0.042755454778671265,0.054778825491666794
1761585608575727400,0.505727294921875,-0.011949337087571621,-0.03568555787205696,0.05466031655669212
1761585608585701400,0.515701416015625,0.00538571085780859,-0.05136625096201897,0.03626426309347153
1761585608595674600,0.525674560546875,0.010808705352246761,-0.04313974827528,0.02375912480056286
1761585608605648600,0.535648681640625,0.011718708090484142,-0.023197464644908905,0.009427590295672417
1761585608615622400,0.545622314453125,0.01363218855112791,-0.00714632635936141,-0.007791077718138695
1761585608625595600,0.555595703125,0.012762666679918766,0.005834453273564577,-0.007565508130937815
1761585608635569700,0.565569580078125,0.0019659455865621567,0.0068022459745407104,-0.007066431455314159
1761585608645543700,0.575543701171875,0.0010434264549985528,0.01594274677336216,-0.0017185378819704056
1761585608655517700,0.585517578125,0.0017065536230802536,0.020674385130405426,-0.00005459480235003866
1761585608665490400,0.595490478515625,0.01073946338146925,0.01158554945141077,0.003721501212567091
1761585608675464400,0.60546435546875,0.01571344956755638,0.026931749656796455,0.019474631175398827
1761585608685438500,0.6154384765625,0.008069378323853016,-0.0036669063847512007,0.02528058923780918
1761585608695411500,0.625411376953125,0.0018788601737469435,-0.034743864089250565,0.00929176900535822
1761585608705385500,0.635385498046875,-0.01167742908000946,-0.011111507192254066,0.009415606036782265
1761585608715359500,0.645359375,-0.027659857645630836,0.03936045616865158,0.020537232980132103
1761585608725333500,0.65533349609375,-0.0249016210436821,0.054960187524557114,0.01678643748164177
1761585608735306500,0.665306396484375,-0.01727752387523651,0.03291560709476471,-0.019642144441604614
1761585608745280500,0.675280517578125,-0.020861605182290077,0.004817392211407423,-0.06277976185083389
1761585608755254500,0.685254638671875,-0.027580760419368744,-0.013969345018267632,-0.09850606322288513
1761585608765227500,0.6952275390625,-0.023379623889923096,-0.02797224558889866,-0.12092828750610352
1761585608775201500,0.705201416015625,-0.008245945908129215,-0.035406991839408875,-0.1269872486591339
1761585608785175600,0.715175537109375,0.009457151405513287,-0.035119105130434036,-0.10703910142183304
1761585608795149600,0.725149658203125,0.022766299545764923,-0.0299104955047369,-0.07464414089918137
1761585608805122300,0.735122314453125,0.024900022894144058,-0.012820989824831486,-0.044369060546159744
1761585608815096300,0.745096435546875,0.020168917253613472,0.00162399560213089,-0.021040037274360657
1761585608825070300,0.7550703125,0.015250325202941895,-0.00046631949953734875,-0.009946906939148903
1761585608835043300,0.765043212890625,0.011580489575862885,-0.018700983375310898,0.01085770782083273
1761585608845017300,0.775017333984375,0.009237706661224365,-0.037395574152469635,0.03604455292224884
1761585608854991400,0.784991455078125,-0.0006916229031048715,-0.04236743226647377,0.06126175820827484
1761585608864965400,0.79496533203125,-0.001612011343240738,-0.042386606335639954,0.08198967576026917
1761585608874938400,0.8049384765625,0.0065255435183644295,-0.035239480435848236,0.10107655078172684
1761585608884912400,0.814912353515625,0.009253153577446938,-0.032821595668792725,0.0975920706987381
1761585608894886400,0.824886474609375,0.013292369432747364,-0.0337744764983654,0.0844445750117302
1761585608904859600,0.834859619140625,0.010912302881479263,-0.025970879942178726,0.06019063666462898
1761585608914833700,0.844833740234375,-0.0017243968322873116,-0.006819023750722408,0.04073304682970047
1761585608924807400,0.854807373046875,-0.008069378323853016,0.004819788970053196,0.016774719581007957
1761585608934781400,0.864781494140625,-0.011687016114592552,0.0122481444850564,-0.006196909584105015
1761585608944754700,0.874754638671875,-0.011262508109211922,0.017547035589814186,-0.016643425449728966
1761585608954728700,0.884728759765625,-0.009228652343153954,0.02461346797645092,-0.031741682440042496
1761585608964702700,0.89470263671875,-0.016019979491829872,0.03129427134990692,-0.059479039162397385
1761585608974676700,0.9046767578125,-0.016753679141402245,0.029498504474759102,-0.0884435772895813
1761585608984649500,0.9146494140625,-0.016929714009165764,0.01727938838303089,-0.10518766939640045
1761585608994623500,0.92462353515625,-0.021769743412733078,0.02172686718404293,-0.09539230167865753
1761585609004597500,0.934597412109375,-0.01787673495709896,0.026318157091736794,-0.06933007389307022
1761585609014570500,0.944570556640625,-0.007505320478230715,0.019882095977663994,-0.045769087970256805
1761585609024544500,0.95454443359375,0.003495665267109871,0.028358403593301773,-0.03110252507030964
1761585609034518500,0.9645185546875,0.005161472596228123,0.059128567576408386,-0.013965883292257786
1761585609044491500,0.974491455078125,0.004706338047981262,0.062584288418293,-0.006969492416828871
1761585609054465500,0.984465576171875,0.004577441141009331,0.04596909135580063,-0.009823602624237537
1761585609064439600,0.994439453125,0.0036770266015082598,0.04512433335185051,-0.008614260703325272
1761585609074413600,1.00441357421875,0.0020005665719509125,0.045033786445856094,-0.010103234089910984
1761585609084386600,1.014386474609375,0.004820853937417269,0.03777747228741646,-0.008253668434917927
1761585609094360600,1.024360595703125,0.001141963410191238,0.01818140037357807,-0.008346347138285637
1761585609104334600,1.03433447265625,-0.007525027729570866,-0.0024780714884400368,-0.01739630103111267
1761585609114307300,1.044307373046875,-0.017611218616366386,-0.031974710524082184,-0.02930542454123497
1761585609124281300,1.05428125,-0.020808875560760498,-0.04140043631196022,-0.025835858657956123
1761585609134255400,1.06425537109375,-0.023091470822691917,-0.004770254250615835,0.0028240159153938293
1761585609144229400,1.0742294921875,-0.016997093334794044,0.027692880481481552,0.03199654817581177
1761585609154202400,1.084202392578125,-0.006415554787963629,0.050094325095415115,0.05279210954904556
1761585609164176400,1.09417626953125,0.008116249926388264,0.05800258368253708,0.06059597060084343
1761585609174150400,1.104150390625,0.01284708920866251,0.058220695704221725,0.05745583400130272
1761585609184123400,1.114123291015625,0.008884038776159286,0.037882134318351746,0.027722440659999847
1761585609194097400,1.124097412109375,0.009160474874079227,0.00490208063274622,-0.0051683965139091015
1761585609204071400,1.134071533203125,0.010654774494469166,-0.026255305856466293,-0.030596524477005005
1761585609214045400,1.14404541015625,0.009958624839782715,-0.05506618320941925,-0.031002391129732132
1761585609224018700,1.154018798828125,0.006886135786771774,-0.04300738871097565,-0.009209210984408855
1761585609233992700,1.16399267578125,0.0005896238726563752,-0.017588846385478973,0.02064269408583641
1761585609243966500,1.173966552734375,-0.007733553647994995,0.005212871357798576,0.038492798805236816
1761585609253939500,1.183939453125,-0.011158112436532974,0.006862965878099203,0.04002251848578453
1761585609263913500,1.19391357421875,-0.015278289094567299,0.008187090046703815,0.030287066474556923
1761585609273887500,1.203887451171875,-0.021097561344504356,0.0046570696868002415,0.012040950357913971
1761585609283861500,1.213861572265625,-0.00914183259010315,-0.0318271704018116,0.009463010355830193
1761585609293834500,1.22383447265625,-0.002347576431930065,0.0020301276817917824,0.06960198283195496
1761585609303808500,1.23380859375,-0.01823945716023445,0.07037003338336945,0.1416575312614441
1761585609313782500,1.243782470703125,-0.024386832490563393,0.10733471065759659,0.18039001524448395
1761585609323755500,1.253755615234375,-0.01919872872531414,0.09015679359436035,0.19243308901786804
1761585609333729500,1.2637294921875,-0.019214440137147903,0.08073079586029053,0.19016195833683014
1761585609343703600,1.27370361328125,-0.02599191851913929,0.08163254708051682,0.17749489843845367
1761585609353677600,1.283677490234375,-0.009763414971530437,0.04415760561823845,0.16632533073425293
1761585609363650600,1.293650634765625,-0.004381166305392981,0.04453391209244728,0.18996195495128632
1761585609373624600,1.30362451171875,-0.005736448802053928,0.07009387016296387,0.2074008584022522
1761585609383598600,1.3135986328125,-0.005935653578490019,0.07928843051195145,0.18227367103099823
1761585609393571300,1.3235712890625,-0.014756308868527412,0.11220110952854156,0.1718577742576599
1761585609403545300,1.33354541015625,-0.030592797324061394,0.15987834334373474,0.1578247845172882
1761585609413519400,1.343519287109375,-0.0421099029481411,0.19701851904392242,0.12612491846084595
1761585609423493400,1.353493408203125,-0.034809913486242294,0.16681347787380219,0.07341216504573822
1761585609433466400,1.36346630859375,-0.01540478877723217,0.0696009173989296,0.0766066238284111
1761585609443440400,1.3734404296875,-0.015415441244840622,0.0779014527797699,0.143906831741333
1761585609453414400,1.383414306640625,-0.04196476191282272,0.18648305535316467,0.21668170392513275
1761585609463387400,1.393387451171875,-0.06475768983364105,0.2958332598209381,0.2302427887916565
1761585609473361400,1.403361328125,-0.07953476905822754,0.31266283988952637,0.18170854449272156
1761585609483335400,1.41333544921875,-0.09091100096702576,0.20121699571609497,0.0691622942686081
1761585609493309400,1.423309326171875,-0.08666538447141647,0.1446799486875534,-0.017724135890603065
1761585609503283000,1.433282958984375,-0.03672339394688606,0.15793530642986298,-0.07702421396970749
1761585609513257000,1.443257080078125,0.025428926572203636,0.13056279718875885,-0.12442395091056824
1761585609523231000,1.45323095703125,0.05684597045183182,0.0946924239397049,-0.1557547152042389
1761585609533204000,1.463203857421875,0.06895429641008377,0.07627613097429276,-0.17648422718048096
1761585609543178000,1.473177978515625,0.06315047293901443,0.05074440315365791,-0.2050303816795349
1761585609553152000,1.483152099609375,0.05504407733678818,0.0011022823164239526,-0.22839589416980743
1761585609563126000,1.4931259765625,0.05548616126179695,-0.06992661952972412,-0.25932183861732483
1761585609573099300,1.503099365234375,0.04482632875442505,-0.126029834151268,-0.3031638562679291
1761585609583073000,1.513072998046875,0.027157850563526154,-0.1572095900774002,-0.3260665237903595
1761585609593047000,1.523047119140625,0.01104625966399908,-0.1741987019777298,-0.31708526611328125
1761585609603020300,1.533020263671875,-0.010536263696849346,-0.19427627325057983,-0.27642467617988586
1761585609612994300,1.542994384765625,-0.03220347687602043,-0.20588286221027374,-0.21052022278308868
1761585609622968300,1.55296826171875,-0.05025731027126312,-0.18462523818016052,-0.13548405468463898
1761585609632942000,1.562942138671875,-0.05841377377510071,-0.12688657641410828,-0.0723373144865036
1761585609642915000,1.5729150390625,-0.04735180363059044,-0.08131323009729385,-0.03706347942352295
1761585609652889000,1.58288916015625,-0.018551846966147423,-0.039088014513254166,-0.010922422632575035
1761585609662863000,1.592863037109375,0.009098690003156662,-0.002394448034465313,0.01213069912046194
1761585609672836000,1.602836181640625,0.026324015110731125,0.04018470272421837,0.023018766194581985
1761585609682810000,1.61281005859375,0.04199405387043953,0.07580235600471497,0.026510169729590416
1761585609692784000,1.6227841796875,0.057617224752902985,0.08421900868415833,-0.007772435434162617
1761585609702758100,1.632758056640625,0.07291868329048157,0.06576357036828995,-0.07911692559719086
1761585609712731100,1.642731201171875,0.0777917355298996,0.02804974466562271,-0.13710646331310272
1761585609722705200,1.652705078125,0.07751556485891342,0.011257714591920376,-0.15733397006988525
1761585609732679200,1.66267919921875,0.07005871087312698,0.024456607177853584,-0.14452841877937317
1761585609742653200,1.672653076171875,0.07347874343395233,0.04807165637612343,-0.1263587325811386
1761585609752626200,1.682626220703125,0.07408461719751358,0.05588243901729584,-0.08890936523675919
1761585609762600200,1.69260009765625,0.06996337324380875,0.08246451616287231,-0.03256433457136154
1761585609772574200,1.70257421875,0.06093685328960419,0.044975463300943375,0.04490009695291519
1761585609782547000,1.712546875,0.07582525908946991,-0.053592387586832047,0.20468948781490326
1761585609792521000,1.72252099609375,0.08176064491271973,0.01465564128011465,0.44179844856262207
1761585609802495000,1.732494873046875,0.025014806538820267,0.11992347240447998,0.6036337018013
1761585609812468000,1.742468017578125,-0.0365377701818943,0.062726229429245,0.6126535534858704
1761585609822442000,1.75244189453125,-0.0638069435954094,-0.07160760462284088,0.5739673972129822
1761585609832416000,1.762416015625,-0.08020243048667908,-0.16345550119876862,0.5536312460899353
1761585609842390000,1.77239013671875,-0.08806434273719788,-0.21340495347976685,0.5393127799034119
1761585609852363000,1.782363037109375,-0.07940507680177689,-0.2482079416513443,0.513595700263977
1761585609862337000,1.7923369140625,-0.08056328445672989,-0.29899361729621887,0.4507714509963989
1761585609872311000,1.80231103515625,-0.08672025054693222,-0.3597853481769562,0.38846224546432495
1761585609882285000,1.81228515625,-0.10116736590862274,-0.3678288757801056,0.32861196994781494
1761585609892258000,1.822258056640625,-0.11447171866893768,-0.3422207236289978,0.26688387989997864
1761585609902232000,1.832232177734375,-0.10283104330301285,-0.3152809739112854,0.20805813372135162
1761585609912206000,1.8422060546875,-0.046363502740859985,-0.3120673596858978,0.15164358913898468
1761585609922179000,1.852178955078125,0.007677627261728048,-0.2959038317203522,0.1301255077123642
1761585609932153000,1.862153076171875,0.01830150932073593,-0.25322985649108887,0.12083906680345535
1761585609942127000,1.872127197265625,0.0073260897770524025,-0.18433548510074615,0.11064901947975159
1761585609952101000,1.88210107421875,-0.010988469235599041,-0.12983496487140656,0.10603482276201248
1761585609962074000,1.89207421875,-0.014710236340761185,-0.10644335299730301,0.10760848224163055
1761585609972048100,1.902048095703125,0.0006945523782633245,-0.07510992884635925,0.13333702087402344
1761585609982022100,1.912022216796875,0.027461452409625053,-0.05108156055212021,0.17389057576656342
1761585609991995100,1.9219951171875,0.04549398273229599,-0.027897944673895836,0.19094039499759674
1761585610001969200,1.93196923828125,0.03146631270647049,-0.056655555963516235,0.18967433273792267
1761585610011943200,1.941943115234375,-0.0035278894938528538,-0.10102355480194092,0.17774443328380585
1761585610021917200,1.951917236328125,-0.03741395100951195,-0.1062992736697197,0.16369199752807617
1761585610031890200,1.96189013671875,-0.06868558377027512,-0.07242200523614883,0.14059466123580933
1761585610041864200,1.9718642578125,-0.10791954398155212,-0.031005319207906723,0.11988672614097595
1761585610051838200,1.981838134765625,-0.19020216166973114,-0.08427626639604568,0.11422085016965866
1761585610061811000,1.99181103515625,-0.2851441204547882,-0.22535856068134308,0.08741426467895508
1761585610071785000,2.001784912109375,-0.3521798849105835,-0.3489244282245636,0.04737443849444389
1761585610081759000,2.011759033203125,-0.3884822428226471,-0.4343980550765991,0.02743162401020527
1761585610091733000,2.02173291015625,-0.4321056008338928,-0.5236853361129761,0.05302619934082031
1761585610101706000,2.0317060546875,-0.5015621781349182,-0.615304172039032,0.1444072425365448
1761585610111680000,2.041679931640625,-0.6079908609390259,-0.8535521626472473,0.2911168038845062
1761585610121654000,2.051654052734375,-0.6584993600845337,-1.1838369369506836,0.4233699142932892
1761585610131627000,2.061626953125,-0.6718060970306396,-1.669562816619873,0.4691312611103058
1761585610141601000,2.07160107421875,-0.657058835029602,-2.296232223510742,0.4690476357936859
1761585610151575000,2.081574951171875,-0.6450543403625488,-2.5105526447296143,0.3804815709590912
1761585610161549000,2.091549072265625,-0.501131534576416,-1.9955766201019287,0.1463146060705185
1761585610171522000,2.10152197265625,-0.2683725953102112,-1.531252384185791,-0.07806124538183212
1761585610181496000,2.11149609375,-0.21812167763710022,-1.1685361862182617,-0.2709287106990814
1761585610191470000,2.121469970703125,-0.23106864094734192,-0.834074079990387,-0.4457801282405853
1761585610201443000,2.131443115234375,-0.1975357085466385,-0.5632705688476562,-0.5798172950744629
1761585610211416800,2.141416748046875,-0.1250404715538025,-0.3549562394618988,-0.6858620047569275
1761585610221390800,2.151390869140625,-0.06259067356586456,-0.2162177860736847,-0.7541371583938599
1761585610231364900,2.16136474609375,-0.01804504729807377,-0.12699151039123535,-0.7583889365196228
1761585610241338000,2.171338134765625,0.020473849028348923,-0.11794714629650116,-0.7359824180603027
1761585610251312000,2.18131201171875,0.08256411552429199,-0.12137649208307266,-0.6835929751396179
1761585610261286100,2.1912861328125,0.12463966757059097,-0.09403302520513535,-0.5810287594795227
1761585610271259100,2.201259033203125,0.14526692032814026,-0.12405510246753693,-0.430488258600235
1761585610281233200,2.211233154296875,0.13877812027931213,-0.18758080899715424,-0.2597450315952301
1761585610291207200,2.221207275390625,0.09533903747797012,-0.19706512987613678,-0.10836855322122574
1761585610301181200,2.23118115234375,0.029387449845671654,-0.1141742393374443,-0.06273315846920013
1761585610311154200,2.241154296875,-0.027637220919132233,0.06438031792640686,-0.12559308111667633
1761585610321128200,2.251128173828125,-0.052495166659355164,0.28254327178001404,-0.27952486276626587
1761585610331102200,2.261102294921875,0.0297927837818861,0.48917660117149353,-0.47550928592681885
1761585610341075200,2.2710751953125,0.19952748715877533,0.623748779296875,-0.6742883920669556
1761585610351049200,2.28104931640625,0.21006642282009125,0.6682984232902527,-0.880094587802887
1761585610361023200,2.291023193359375,0.0970437228679657,0.6570918560028076,-1.0447032451629639
1761585610370997200,2.300997314453125,0.07227899134159088,0.563590943813324,-1.0926129817962646
1761585610380970000,2.310969970703125,0.24304620921611786,0.41335827112197876,-0.9576961398124695
1761585610390944000,2.320944091796875,0.5118744969367981,0.3890111446380615,-0.6810067892074585
1761585610400918000,2.33091796875,0.7166547775268555,0.4328417181968689,-0.3667260706424713
1761585610410891000,2.34089111328125,0.7369424700737,0.4405808448791504,-0.08723477274179459
1761585610420865000,2.350864990234375,0.43051382899284363,0.3498477637767792,0.10257644206285477
1761585610430839000,2.360839111328125,-0.10330028831958771,0.13771259784698486,0.20345191657543182
1761585610440813000,2.37081298828125,-0.6122849583625793,-0.05269596725702286,0.26478371024131775
1761585610450786000,2.3807861328125,-0.9405770897865295,-0.1277766078710556,0.2903255820274353
1761585610460760000,2.390760009765625,-1.0898771286010742,-0.12995639443397522,0.3300841748714447
1761585610470734000,2.400734130859375,-1.1639773845672607,-0.12242738157510757,0.3870750069618225
1761585610480708000,2.4107080078125,-1.1952993869781494,-0.09063402563333511,0.43272852897644043
1761585610490681000,2.42068115234375,-1.1513527631759644,-0.03989415243268013,0.4970254898071289
1761585610500655000,2.430655029296875,-1.0555287599563599,0.04904237762093544,0.5961648225784302
1761585610510628400,2.44062841796875,-0.99574875831604,0.13210956752300262,0.69277423620224
1761585610520601600,2.4506015625,-1.0106309652328491,0.22321923077106476,0.7418826222419739
1761585610530575600,2.46057568359375,-1.0357896089553833,0.30595192313194275,0.7426584362983704
1761585610540549600,2.470549560546875,-0.9941346049308777,0.35642123222351074,0.7245667576789856
1761585610550523400,2.4805234375,-0.8947722911834717,0.3120329976081848,0.7185863852500916
1761585610560496600,2.49049658203125,-0.44045355916023254,-0.40350672602653503,0.9243179559707642
1761585610570470700,2.500470703125,-0.5889306664466858,-1.364943504333496,1.5158652067184448
1761585610580444700,2.510444580078125,-0.8167041540145874,-1.281624674797058,1.4759159088134766
1761585610590417400,2.52041748046875,-0.8071428537368774,-0.990818440914154,0.888019323348999
1761585610600391400,2.530391357421875,-0.8168250322341919,-0.5538975596427917,0.5070376396179199
1761585610610365400,2.540365478515625,-0.8908761143684387,-0.10128001868724823,0.1717858761548996
1761585610620339500,2.55033935546875,-0.8681729435920715,0.18833981454372406,-0.0806647539138794
1761585610630312400,2.5603125,-0.7645421624183655,0.27133670449256897,-0.18494108319282532
1761585610640286500,2.570286376953125,-0.6064374446868896,0.056166600435972214,-0.11320458352565765
1761585610650260500,2.580260498046875,-0.4723187983036041,-0.3136362135410309,0.005935387220233679
1761585610660234500,2.590234375,-0.3513002395629883,-0.5893895030021667,0.10373944789171219
1761585610670207500,2.60020751953125,-0.38617727160453796,-0.8048799633979797,0.23886291682720184
1761585610680181500,2.610181396484375,-0.5334636569023132,-0.7616299986839294,0.347665011882782
1761585610690155500,2.620155517578125,-0.6203215718269348,-0.6393756866455078,0.4112298786640167
1761585610700128500,2.63012841796875,-0.6096540093421936,-0.4821820855140686,0.4683650732040405
1761585610710102500,2.6401025390625,-0.535576581954956,-0.31728023290634155,0.4886873960494995
1761585610720076500,2.65007666015625,-0.39451083540916443,-0.19468772411346436,0.4579713046550751
1761585610730050600,2.660050537109375,-0.20571614801883698,-0.14851996302604675,0.3937414288520813
1761585610740023600,2.6700234375,-0.0009230516152456403,-0.16014759242534637,0.29174742102622986
1761585610749997300,2.679997314453125,0.18447370827198029,-0.18082411587238312,0.16367974877357483
1761585610759971300,2.689971435546875,0.2683353126049042,-0.2006707787513733,0.019410450011491776
1761585610769944300,2.6999443359375,0.19965718686580658,-0.08167754858732224,-0.10278310626745224
1761585610779918300,2.70991845703125,0.06339947879314423,0.22731171548366547,-0.22551009058952332
1761585610789892400,2.719892333984375,-0.030790936201810837,0.5543886423110962,-0.34308093786239624
1761585610799866400,2.729866455078125,-0.011416971683502197,0.7790275812149048,-0.41450265049934387
1761585610809839400,2.73983935546875,0.08904252201318741,0.8741703629493713,-0.43804019689559937
1761585610819813400,2.7498134765625,0.2366572767496109,0.9089083671569824,-0.4432346820831299
1761585610829787400,2.759787353515625,0.42523863911628723,1.0372458696365356,-0.50030118227005
1761585610839760600,2.7697607421875,0.5887788534164429,1.141605257987976,-0.5626750588417053
1761585610849734700,2.779734619140625,0.6976922750473022,1.1205769777297974,-0.5228477716445923
1761585610859708700,2.789708740234375,0.7960055470466614,1.1219266653060913,-0.5376064777374268
1761585610869682400,2.799682373046875,0.8536368608474731,1.173219084739685,-0.5793840289115906
1761585610879655700,2.80965576171875,0.8798455595970154,1.301061749458313,-0.6633270978927612
1761585610889629700,2.819629638671875,0.8606207370758057,1.3333629369735718,-0.823012113571167
1761585610899603700,2.829603759765625,0.8289898633956909,1.2917921543121338,-1.0262315273284912
1761585610909576400,2.839576416015625,0.8210693597793579,1.3282274007797241,-1.2354577779769897
1761585610919550500,2.849550537109375,0.860595166683197,1.380407452583313,-1.4209141731262207
1761585610929524500,2.8595244140625,0.9657495617866516,1.4046107530593872,-1.5675840377807617
1761585610939498500,2.86949853515625,1.1160218715667725,1.4703810214996338,-1.6519590616226196
1761585610949471500,2.879471435546875,1.255780816078186,1.552106261253357,-1.705506682395935
1761585610959445500,2.889445556640625,1.3477991819381714,1.5653594732284546,-1.7720247507095337
1761585610969419500,2.89941943359375,1.3888318538665771,1.491599202156067,-1.8436486721038818
1761585610979393500,2.9093935546875,1.3493467569351196,1.3820189237594604,-1.9025412797927856
1761585610989366500,2.919366455078125,1.2461082935333252,1.3204426765441895,-1.9330214262008667
1761585610999340500,2.929340576171875,1.1464980840682983,1.1281979084014893,-1.9285731315612793
1761585611009314600,2.939314453125,1.1375375986099243,0.8582137823104858,-1.8900337219238281
1761585611019287600,2.94928759765625,1.1973735094070435,0.578988790512085,-1.8571550846099854
1761585611029261600,2.959261474609375,1.2544535398483276,0.35524463653564453,-1.8650132417678833
1761585611039235600,2.969235595703125,1.2918776273727417,0.245541051030159,-1.9184062480926514
1761585611049209600,2.979209716796875,1.312415361404419,0.2461855411529541,-2.0144243240356445
1761585611059182300,2.989182373046875,1.3223463296890259,0.18585428595542908,-2.0660459995269775
1761585611069156400,2.99915625,1.309058427810669,0.11437850445508957,-1.9961105585098267
1761585611079130400,3.00913037109375,1.2832273244857788,0.006582801695913076,-1.8100898265838623
1761585611089103400,3.019103271484375,1.2792654037475586,-0.08635886013507843,-1.5835283994674683
1761585611099077400,3.029077392578125,1.27707040309906,-0.203735813498497,-1.3102225065231323
1761585611109051400,3.039051513671875,1.2667487859725952,-0.23218584060668945,-0.9990292191505432
1761585611119025400,3.049025390625,1.237711787223816,-0.17504239082336426,-0.6974704265594482
1761585611128998400,3.058998291015625,1.2356425523757935,-0.22408290207386017,-0.41351380944252014
1761585611138972400,3.068972412109375,1.2840497493743896,-0.2787749171257019,-0.17618247866630554
1761585611148946400,3.078946533203125,1.3489235639572144,-0.36552897095680237,-0.0855998545885086
1761585611158920400,3.08892041015625,1.387882113456726,-0.43956273794174194,-0.13347522914409637
1761585611168893700,3.098893798828125,1.3706698417663574,-0.44163787364959717,-0.22614018619060516
1761585611178867500,3.108867431640625,1.2943024635314941,-0.3248728811740875,-0.3117501735687256
1761585611188841500,3.118841552734375,1.2132192850112915,-0.0812530443072319,-0.4364532232284546
1761585611198814500,3.128814453125,1.1446330547332764,0.1405549794435501,-0.5817075967788696
1761585611208788500,3.13878857421875,1.085634708404541,0.3878454566001892,-0.675891101360321
1761585611218762500,3.148762451171875,1.0329570770263672,0.6270519495010376,-0.6737331748008728
1761585611228736500,3.158736572265625,0.9914306998252869,0.8029206991195679,-0.5882635116577148
1761585611238709500,3.16870947265625,0.9484618902206421,0.9490238428115845,-0.4625053107738495
1761585611248683500,3.17868359375,0.9008307456970215,1.0217959880828857,-0.3515721559524536
1761585611258657500,3.188657470703125,0.8718366622924805,0.9433377385139465,-0.25411295890808105
1761585611268630500,3.198630615234375,0.8748132586479187,0.7777679562568665,-0.17724774777889252
1761585611278604500,3.2086044921875,0.8722547292709351,0.5348032116889954,-0.10198788344860077
1761585611288578600,3.21857861328125,0.8271338939666748,0.3485318720340729,-0.022724753245711327
1761585611298552600,3.228552490234375,0.7642369270324707,0.2630276381969452,0.032823193818330765
1761585611308525600,3.238525634765625,0.7264605164527893,0.22813303768634796,0.03469859063625336
1761585611318499600,3.24849951171875,0.7171759605407715,0.19547869265079498,0.00043302998528815806
1761585611328473600,3.2584736328125,0.7695243954658508,0.056468334048986435,-0.046301983296871185
1761585611338447600,3.268447509765625,0.8887381553649902,-0.12795983254909515,-0.05387148633599281
1761585611348420400,3.27842041015625,1.0483943223953247,-0.20495368540287018,-0.05110286548733711
1761585611358394400,3.288394287109375,1.1578338146209717,-0.09457417577505112,-0.11194517463445663
1761585611368368400,3.298368408203125,1.1440553665161133,0.20097465813159943,-0.2611679434776306
1761585611378341400,3.30834130859375,0.9767689108848572,0.6001678705215454,-0.47755324840545654
1761585611388315400,3.3183154296875,0.6772021651268005,1.0175610780715942,-0.7548165321350098
1761585611398289400,3.328289306640625,0.36966246366500854,1.2173447608947754,-1.0775001049041748
1761585611408263400,3.338263427734375,0.2070450633764267,1.185983657836914,-1.2711944580078125
1761585611418236400,3.348236328125,0.15289181470870972,1.016542673110962,-1.2969948053359985
1761585611428210400,3.35821044921875,0.10925964266061783,0.715483546257019,-1.1583181619644165
1761585611438184400,3.368184326171875,-0.05118435621261597,0.47550421953201294,-0.8778777718544006
1761585611448157400,3.378157470703125,-0.2359808385372162,0.4067336618900299,-0.594221293926239
1761585611458131500,3.38813134765625,-0.32163822650909424,0.4813530445098877,-0.4063912034034729
1761585611468105500,3.39810546875,-0.29791131615638733,0.45460745692253113,-0.34728604555130005
1761585611478079500,3.40807958984375,-0.2081177830696106,0.2859167158603668,-0.35043978691101074
1761585611488052500,3.418052490234375,-0.10180093348026276,0.08154545724391937,-0.34840965270996094
1761585611498026500,3.428026611328125,-0.031751539558172226,-0.15587614476680756,-0.31006279587745667
1761585611508000800,3.438000732421875,-0.006591323763132095,-0.41925930976867676,-0.2521970868110657
1761585611517974800,3.447974853515625,-0.024868864566087723,-0.7034327387809753,-0.2196814864873886
1761585611527947800,3.45794775390625,-0.12072215974330902,-1.0345706939697266,-0.21226592361927032
1761585611537921800,3.467921875,-0.23391315340995789,-1.2913331985473633,-0.219034343957901
1761585611547895800,3.477895751953125,-0.300096720457077,-1.3237342834472656,-0.1985836625099182
1761585611557869000,3.487869140625,-0.3143502175807953,-1.1962690353393555,-0.15029282867908478
1761585611567843000,3.497843017578125,-0.20761950314044952,-1.2065390348434448,-0.08344961702823639
1761585611577817000,3.507817138671875,-0.08431275188922882,-1.1209052801132202,-0.00140987744089216
1761585611587790800,3.517790771484375,0.06437552720308304,-0.7771532535552979,0.11631569266319275
1761585611597764000,3.52776416015625,0.2654612362384796,-0.3652253746986389,0.2612643539905548
1761585611607738000,3.537738037109375,0.5181757807731628,-0.0623222291469574,0.4063453674316406
1761585611617712000,3.547712158203125,0.7114397883415222,-0.1675245463848114,0.5518288016319275
1761585611627685000,3.55768505859375,0.6948381662368774,-0.5182588696479797,0.7414379119873047
1761585611637659000,3.567658935546875,0.45150700211524963,-0.8381960988044739,0.9699560403823853
1761585611647633000,3.5776328125,-0.055101070553064346,-1.0092509984970093,1.1973934173583984
1761585611657607000,3.58760693359375,-0.5073132514953613,-0.6871653199195862,1.4053735733032227
1761585611667580000,3.597579833984375,-0.6846981644630432,-0.26779523491859436,1.5744962692260742
1761585611677554000,3.607553955078125,-0.6172277927398682,-0.07473522424697876,1.6884353160858154
1761585611687528000,3.61752783203125,-0.4618198275566101,-0.08537322282791138,1.5750123262405396
1761585611697502000,3.627501953125,-0.41033586859703064,0.1768282949924469,1.2780427932739258
1761585611707475000,3.637474853515625,-0.4229067862033844,0.9266572594642639,1.0160974264144897
1761585611717449000,3.647448974609375,-0.3507385849952698,1.5472265481948853,0.7156355977058411
1761585611727423000,3.657423095703125,-0.26195597648620605,1.619785189628601,0.3524155616760254
1761585611737396000,3.66739599609375,-0.2703063189983368,1.1648533344268799,0.0938122421503067
1761585611747370000,3.677369873046875,-0.32676878571510315,0.5155704021453857,0.08130710572004318
1761585611757344000,3.687343994140625,-0.3487430810928345,-0.0625174418091774,0.24453970789909363
1761585611767318000,3.697318115234375,-0.27755144238471985,-0.33973705768585205,0.461906373500824
1761585611777291000,3.707291015625,-0.12858913838863373,-0.2998386323451996,0.6456354856491089
1761585611787265000,3.71726513671875,0.002317216480150819,-0.010512827895581722,0.7300659418106079
1761585611797239000,3.727239013671875,0.06453025341033936,0.31971168518066406,0.7050761580467224
1761585611807213000,3.737213134765625,0.026545856148004532,0.5065351128578186,0.6220707297325134
1761585611817185800,3.747185791015625,-0.02628779597580433,0.625758945941925,0.5795254111289978
1761585611827159800,3.757159912109375,-0.03988083824515343,0.7023557424545288,0.6170496344566345
1761585611837133800,3.7671337890625,-0.028840968385338783,0.8165035843849182,0.600950300693512
1761585611847106800,3.77710693359375,-0.05383686721324921,0.8405961394309998,0.5156356692314148
1761585611857080800,3.787080810546875,-0.09673639386892319,0.70024573802948,0.4611838757991791
1761585611867054800,3.797054931640625,-0.16177664697170258,0.5235119462013245,0.5291770100593567
1761585611877028900,3.80702880859375,-0.20116639137268066,0.38006317615509033,0.6992211937904358
1761585611887002000,3.817002197265625,-0.22658494114875793,0.2773708999156952,0.8746100664138794
1761585611896976000,3.826975830078125,-0.19166956841945648,0.14205195009708405,0.9865893125534058
1761585611906950000,3.836949951171875,-0.15884850919246674,-0.043468113988637924,1.0568454265594482
1761585611916923100,3.846923095703125,-0.18162758648395538,-0.09635663032531738,1.1020514965057373
1761585611926897200,3.856897216796875,-0.22876819968223572,-0.00287408335134387,1.0555521249771118
1761585611936871200,3.86687109375,-0.23526737093925476,0.15332964062690735,0.9727403521537781
1761585611946845000,3.876844970703125,-0.19074732065200806,0.2937983274459839,0.8870062828063965
1761585611956818000,3.88681787109375,-0.13848064839839935,0.4250415861606598,0.8326050639152527
1761585611966792000,3.8967919921875,-0.09054907411336899,0.5307208895683289,0.828764796257019
1761585611976766000,3.906765869140625,-0.026266757398843765,0.5416728258132935,0.8655305504798889
1761585611986740000,3.916739990234375,0.01828925870358944,0.34071576595306396,0.9480065107345581
1761585611996713000,3.926712890625,-0.002379534300416708,-0.0023782027419656515,1.059100866317749
1761585612006687000,3.93668701171875,-0.12522050738334656,-0.33785340189933777,1.1350232362747192
1761585612016661000,3.946660888671875,-0.30400994420051575,-0.5987566113471985,1.1019353866577148
1761585612026634000,3.956634033203125,-0.5115343928337097,-0.6828573942184448,0.9489218592643738
1761585612036608000,3.96660791015625,-0.6860899329185486,-0.6203204989433289,0.7807000875473022
1761585612046582000,3.97658203125,-0.7201980948448181,-0.509053111076355,0.6309473514556885
1761585612056556000,3.98655615234375,-0.6008786559104919,-0.4134807884693146,0.4538535177707672
1761585612066529000,3.996529052734375,-0.501503050327301,-0.1760045886039734,0.2426384687423706
1761585612076501000,4.0065009765625,-0.42585036158561707,0.1044963151216507,0.04271071031689644
1761585612086475000,4.01647509765625,-0.31509163975715637,0.365214467048645,-0.11295344680547714
1761585612096448000,4.026447998046875,-0.2076330929994583,0.5679851174354553,-0.21646332740783691
1761585612106422000,4.036422119140625,-0.14129507541656494,0.7212945222854614,-0.27817195653915405
1761585612116396000,4.04639599609375,-0.09542292356491089,0.8791654109954834,-0.2860693037509918
1761585612126370000,4.0563701171875,-0.0812423899769783,0.8411820530891418,-0.2494196742773056
1761585612136343000,4.066343017578125,-0.10318337380886078,0.41978341341018677,-0.12114986032247543
1761585612146317000,4.076317138671875,-0.21037641167640686,-0.07010585069656372,0.03356035798788071
1761585612156291000,4.086291015625,-0.4024249315261841,-0.30629628896713257,0.1833498477935791
1761585612166264000,4.09626416015625,-0.5813379883766174,-0.340749055147171,0.391742467880249
1761585612176238000,4.106238037109375,-0.6651239395141602,-0.3647127151489258,0.6427339315414429
1761585612186212000,4.116212158203125,-0.5955435633659363,-0.3797342777252197,0.8807409405708313
1761585612196186000,4.12618603515625,-0.43980029225349426,-0.40841493010520935,1.0229917764663696
1761585612206158800,4.136158935546875,-0.27610480785369873,-0.3862251937389374,1.0613166093826294
1761585612216132900,4.1461328125,-0.1251416653394699,-0.3294796347618103,1.019745111465454
1761585612226107000,4.15610693359375,0.023854466155171394,-0.29919177293777466,0.9516918063163757
1761585612236081000,4.166080810546875,0.17967841029167175,-0.3996102511882782,0.9575936198234558
1761585612246054000,4.176053955078125,0.3061780333518982,-0.5902107954025269,1.0088807344436646
1761585612256028000,4.18602783203125,0.35729101300239563,-0.6476855874061584,0.9647868275642395
1761585612266002000,4.196001953125,0.2911892235279083,-0.625765860080719,0.7835528254508972
1761585612275975000,4.205974853515625,0.15792518854141235,-0.5282257199287415,0.5334239602088928
1761585612285949000,4.215948974609375,0.05679217725992203,-0.23447614908218384,0.2690669000148773
1761585612295923000,4.2259228515625,-0.006994260009378195,0.1338278353214264,0.048778191208839417
1761585612305897000,4.23589697265625,0.022179337218403816,0.37551555037498474,-0.07532085478305817
1761585612315870000,4.245869873046875,0.11970137059688568,0.44064876437187195,-0.10886602848768234
1761585612325844000,4.255843994140625,0.19645527005195618,0.328305184841156,-0.07489101588726044
1761585612335818000,4.26581787109375,0.2129194587469101,0.13906121253967285,-0.016261260956525803
1761585612345792000,4.2757919921875,0.20943550765514374,-0.05019259825348854,0.06304368376731873
1761585612355765000,4.285764892578125,0.2106134295463562,-0.1537299007177353,0.1417803019285202
1761585612365738800,4.29573876953125,0.23562024533748627,-0.20129263401031494,0.19233748316764832
1761585612375712800,4.305712646484375,0.271410197019577,-0.2513837516307831,0.214681938290596
1761585612385686000,4.31568603515625,0.31093737483024597,-0.39455318450927734,0.2163781076669693
1761585612395660000,4.325659912109375,0.3210408687591553,-0.5672160387039185,0.21952064335346222
1761585612405634000,4.335634033203125,0.286318838596344,-0.6674067974090576,0.22919617593288422
1761585612415607800,4.34560791015625,0.18066751956939697,-0.5558837652206421,0.2438957542181015
1761585612425581000,4.3555810546875,0.025286713615059853,-0.334918349981308,0.23485219478607178
1761585612435555000,4.36555517578125,-0.09079381823539734,-0.13719354569911957,0.21568648517131805
1761585612445529000,4.375529052734375,-0.1585363745689392,-0.07011543959379196,0.18514855206012726
1761585612455502000,4.385502197265625,-0.14582271873950958,-0.16186507046222687,0.19785796105861664
1761585612465476000,4.39547607421875,-0.11953065544366837,-0.2653059661388397,0.1938757300376892
1761585612475450000,4.4054501953125,-0.11988512426614761,-0.37034371495246887,0.20775452256202698
1761585612485424000,4.415424072265625,-0.17758837342262268,-0.46906736493110657,0.22485680878162384
1761585612495396900,4.42539697265625,-0.2305714190006256,-0.5261186361312866,0.2397119253873825
1761585612505371000,4.435370849609375,-0.24802178144454956,-0.555530309677124,0.2607157528400421
1761585612515345400,4.445345458984375,-0.21368752419948578,-0.5899325013160706,0.29473790526390076
1761585612525319400,4.4553193359375,-0.15110589563846588,-0.6605494618415833,0.33590343594551086
1761585612535292400,4.46529248046875,-0.13685639202594757,-0.7572720050811768,0.36937910318374634
1761585612545266400,4.475266357421875,-0.23222285509109497,-0.8088134527206421,0.3732561469078064
1761585612555240400,4.485240478515625,-0.42059728503227234,-0.721921443939209,0.29428595304489136
1761585612565213400,4.49521337890625,-0.6000592112541199,-0.597074568271637,0.12270807474851608
1761585612575187500,4.5051875,-0.6778570413589478,-0.49978530406951904,-0.06495849043130875
1761585612585161500,4.515161376953125,-0.6075178980827332,-0.46773895621299744,-0.15257702767848969
1761585612595135500,4.525135498046875,-0.43137750029563904,-0.4850495159626007,-0.08283815532922745
1761585612605108500,4.5351083984375,-0.2085883617401123,-0.4712833762168884,0.0761091485619545
1761585612615082500,4.54508251953125,0.04109790176153183,-0.27958929538726807,0.21309016644954681
1761585612625056500,4.555056396484375,0.19192469120025635,-0.04097326472401619,0.2718203365802765
1761585612635030500,4.565030517578125,0.17741979658603668,-0.230895534157753,0.44256889820098877
1761585612645003500,4.57500341796875,0.04043157771229744,-0.45997560024261475,0.48208463191986084
1761585612654977500,4.5849775390625,-0.21936245262622833,-0.6524222493171692,0.29997313022613525
1761585612664951600,4.59495166015625,-0.3838893473148346,-0.8164572715759277,0.07129841297864914
1761585612674924300,4.60492431640625,-0.472106009721756,-0.8998968005180359,-0.14730583131313324
1761585612684898300,4.614898193359375,-0.5597274899482727,-0.7878991365432739,-0.3400494456291199
1761585612694873600,4.62487353515625,-0.6260319352149963,-0.5615629553794861,-0.4883188009262085
1761585612704846300,4.634846435546875,-0.6219328045845032,-0.3855817914009094,-0.5789057016372681
1761585612714820400,4.6448203125,-0.5684826374053955,-0.282915860414505,-0.5850338935852051
1761585612724794400,4.65479443359375,-0.514363706111908,-0.21362200379371643,-0.5298047065734863
1761585612734767400,4.664767333984375,-0.4387182295322418,-0.2033666968345642,-0.4436671733856201
1761585612744741400,4.674741455078125,-0.32058092951774597,-0.23079833388328552,-0.3537346422672272
1761585612754715400,4.68471533203125,-0.21337006986141205,-0.26970869302749634,-0.2507299482822418
1761585612764689400,4.694689453125,-0.16408294439315796,-0.30588269233703613,-0.16183629631996155
1761585612774662400,4.704662353515625,-0.17040635645389557,-0.3623789846897125,-0.09246974438428879
1761585612784636400,4.714636474609375,-0.21378178894519806,-0.4503362774848938,-0.04268461465835571
1761585612794610400,4.7246103515625,-0.25807762145996094,-0.549916684627533,-0.019512448459863663
1761585612804584400,4.73458447265625,-0.2883063554763794,-0.643100380897522,-0.035336684435606
1761585612814557400,4.744557373046875,-0.2980404794216156,-0.733283281326294,-0.09084787964820862
1761585612824531500,4.754531494140625,-0.2777692973613739,-0.8355050086975098,-0.15854036808013916
1761585612834505500,4.76450537109375,-0.21364997327327728,-0.9753638505935669,-0.19297558069229126
1761585612844478500,4.774478515625,-0.11224424839019775,-1.1540027856826782,-0.19908221065998077
1761585612854452500,4.784452392578125,-0.006459763273596764,-1.3326895236968994,-0.20848795771598816
1761585612864426500,4.794426513671875,0.040098682045936584,-1.450478196144104,-0.19828246533870697
1761585612874400300,4.804400146484375,0.030234334990382195,-1.4209955930709839,-0.14630980789661407
1761585612884373500,4.81437353515625,-0.018432004377245903,-1.2644129991531372,-0.06071048602461815
1761585612894347500,4.824347412109375,-0.11053530126810074,-1.0713372230529785,-0.0006924218614585698
1761585612904321500,4.834321533203125,-0.22568319737911224,-0.8993939757347107,0.03495825082063675
1761585612914295600,4.844295654296875,-0.2980884313583374,-0.7872629165649414,0.052690375596284866
1761585612924268500,4.8542685546875,-0.3095006048679352,-0.7225318551063538,0.05976346507668495
1761585612934242600,4.86424267578125,-0.2803514897823334,-0.6996720433235168,0.0919610857963562
1761585612944216600,4.874216552734375,-0.22536733746528625,-0.7160004377365112,0.1326824128627777
1761585612954189600,4.884189453125,-0.1518675535917282,-0.7756547331809998,0.196393221616745
1761585612964163600,4.89416357421875,-0.08109671622514725,-0.8804370760917664,0.25019919872283936
1761585612974137600,4.9041376953125,-0.05252339690923691,-0.9472882747650146,0.27262699604034424
1761585612984111600,4.914111572265625,-0.08120617270469666,-0.9410218596458435,0.24707530438899994
1761585612994084400,4.92408447265625,-0.15883386135101318,-0.8615805506706238,0.18392562866210938
1761585613004058400,4.934058349609375,-0.25467410683631897,-0.7423678636550903,0.11139550060033798
1761585613014032400,4.944032470703125,-0.3460564613342285,-0.6131411790847778,0.03131131827831268
1761585613024005400,4.95400537109375,-0.4160137176513672,-0.5196812748908997,-0.03640594333410263
1761585613033979400,4.9639794921875,-0.45077118277549744,-0.4524838626384735,-0.10001847892999649
1761585613043953400,4.973953369140625,-0.4661541283130646,-0.4109792709350586,-0.14202691614627838
1761585613053927400,4.983927490234375,-0.4450019598007202,-0.4033895432949066,-0.15917393565177917
1761585613063900400,4.993900390625,-0.4095859229564667,-0.4521051347255707,-0.12531104683876038
1761585613073874400,5.00387451171875,-0.35953792929649353,-0.5512274503707886,-0.05041124299168587
1761585613083848400,5.013848388671875,-0.2847691476345062,-0.6926389336585999,0.05824732780456543
1761585613093822500,5.023822509765625,-0.19071029126644135,-0.8690512180328369,0.16862709820270538
1761585613103795500,5.03379541015625,-0.17930610477924347,-1.0050969123840332,0.23375177383422852
1761585613113769500,5.04376953125,-0.2701585292816162,-1.047974944114685,0.25030970573425293
1761585613123743500,5.053743408203125,-0.41906091570854187,-1.0418832302093506,0.2235928773880005
1761585613133716200,5.06371630859375,-0.5837441086769104,-0.9980654120445251,0.1530500054359436
1761585613143690200,5.073690185546875,-0.6857256293296814,-0.9272668957710266,0.05464993044734001
1761585613153664300,5.083664306640625,-0.6965556144714355,-0.8445546627044678,-0.040115728974342346
1761585613163638300,5.09363818359375,-0.6269237995147705,-0.7687371373176575,-0.0756755843758583
1761585613173611500,5.103611572265625,-0.5314444303512573,-0.7564189434051514,-0.0011800467036664486
1761585613183585300,5.113585205078125,-0.46369123458862305,-0.7592096924781799,0.25473347306251526
1761585613193559300,5.123559326171875,-0.41892269253730774,-0.74845290184021,0.6342996954917908
1761585613203533300,5.133533203125,-0.3781616687774658,-0.7676330208778381,0.9857988953590393
1761585613213506600,5.143506591796875,-0.35760819911956787,-0.9096641540527344,1.227693796157837
1761585613223480600,5.15348046875,-0.3652389645576477,-1.1415661573410034,1.388104796409607
1761585613233454600,5.16345458984375,-0.37246811389923096,-1.4277448654174805,1.5426828861236572
1761585613243427600,5.173427490234375,-0.38015344738960266,-1.7785439491271973,1.654457688331604
1761585613253401600,5.183401611328125,-0.4236902892589569,-2.2517967224121094,1.6851638555526733
1761585613263375600,5.193375732421875,-0.5091263651847839,-2.73612642288208,1.6304389238357544
1761585613273349600,5.203349609375,-0.654905378818512,-2.8980002403259277,1.41460382938385
1761585613283322400,5.213322265625,-0.7911761403083801,-2.7102367877960205,0.9936184883117676
1761585613293296400,5.22329638671875,-0.8814173936843872,-2.438694953918457,0.5225217938423157
1761585613303270400,5.2332705078125,-0.9202641248703003,-2.116065502166748,0.16065599024295807
1761585613313244400,5.243244384765625,-0.8572068214416504,-1.7718119621276855,-0.012263057753443718
1761585613323217400,5.253217529296875,-0.7483837008476257,-1.5503733158111572,-0.08187675476074219
1761585613333191400,5.26319140625,-0.6959431171417236,-1.3381907939910889,-0.1758091151714325
1761585613343165400,5.27316552734375,-0.6939891576766968,-1.1021404266357422,-0.31606554985046387
1761585613353138400,5.283138427734375,-0.7290571331977844,-0.9216263294219971,-0.5031417012214661
1761585613363112400,5.293112548828125,-0.8243218660354614,-1.1689471006393433,-0.7982974648475647
1761585613373086500,5.30308642578125,-0.9448096752166748,-1.8973976373672485,-1.356181263923645
1761585613383060500,5.313060546875,-1.0013242959976196,-2.5132951736450195,-2.1008639335632324
1761585613393033500,5.323033447265625,-1.1014312505722046,-2.874880075454712,-2.8911445140838623
1761585613403007500,5.333007568359375,-1.2037322521209717,-2.9358487129211426,-3.5352566242218018
1761585613412981500,5.3429814453125,-1.3120800256729126,-3.0466020107269287,-3.9679293632507324
1761585613422954500,5.35295458984375,-1.30502450466156,-2.8811914920806885,-4.101988315582275
1761585613432928500,5.362928466796875,-0.9892135858535767,-2.6745049953460693,-4.014238357543945
1761585613442902500,5.372902587890625,-0.6402899622917175,-2.1359477043151855,-4.076145648956299
1761585613452876500,5.38287646484375,-0.34936490654945374,-1.2171274423599243,-4.155735015869141
1761585613462849300,5.392849365234375,-0.009284045547246933,-0.19782866537570953,-4.290976524353027
1761585613472823300,5.4028232421875,0.4820531904697418,0.7938473224639893,-4.358412265777588
1761585613482797300,5.41279736328125,1.0443460941314697,1.6272121667861938,-4.280781269073486
1761585613492771300,5.422771240234375,1.564305067062378,2.304859161376953,-4.057957172393799
1761585613502744300,5.432744384765625,1.9494357109069824,2.6787755489349365,-3.734018325805664
1761585613512717000,5.442717041015625,2.167609691619873,2.6539297103881836,-3.383664131164551
1761585613522691000,5.452691162109375,2.1862637996673584,2.316417694091797,-3.06769061088562
1761585613532664000,5.4626640625,2.0209639072418213,1.8050309419631958,-2.788797616958618
1761585613542638000,5.47263818359375,1.7747299671173096,1.1646925210952759,-2.5399343967437744
1761585613552612000,5.482612060546875,1.5275635719299316,0.3874041736125946,-2.2670443058013916
1761585613562586000,5.492586181640625,1.3432302474975586,-0.2955895662307739,-1.9317848682403564
1761585613572559000,5.50255908203125,1.2210220098495483,-0.6223370432853699,-1.5140446424484253
1761585613582533000,5.512533203125,1.165388584136963,-0.6044371724128723,-1.077873945236206
1761585613592507100,5.522507080078125,1.1903642416000366,-0.4280514717102051,-0.6999706029891968
1761585613602480000,5.532480224609375,1.2454349994659424,-0.21625693142414093,-0.47320616245269775
1761585613612454100,5.5424541015625,1.2797108888626099,0.19781853258609772,-0.44283974170684814
1761585613622428200,5.55242822265625,1.3096137046813965,0.7727540135383606,-0.6190480589866638
1761585613632402200,5.562402099609375,1.342504858970642,1.244117259979248,-0.9370571970939636
1761585613642375000,5.572375,1.3352197408676147,1.499052882194519,-1.3129442930221558
1761585613652349000,5.582348876953125,1.2706096172332764,1.6370190382003784,-1.7067874670028687
1761585613662323000,5.592322998046875,1.2295409440994263,1.7494810819625854,-2.063619375228882
1761585613672297000,5.602296875,1.2375725507736206,1.9277957677841187,-2.3879354000091553
1761585613682270000,5.61227001953125,1.2965842485427856,2.154329538345337,-2.7007384300231934
1761585613692244000,5.622243896484375,1.401990294456482,2.2436814308166504,-2.992926836013794
1761585613702218000,5.632218017578125,1.4609649181365967,1.8816598653793335,-3.263157606124878
1761585613712191200,5.642191162109375,1.357313871383667,1.4504454135894775,-3.42549729347229
1761585613722165000,5.6521650390625,1.1291049718856812,1.3698335886001587,-3.388843059539795
1761585613732139000,5.662138916015625,0.9139795899391174,1.5071755647659302,-3.113041639328003
1761585613742113000,5.672113037109375,0.7534042596817017,1.5865715742111206,-2.577368974685669
1761585613752086300,5.682086181640625,0.6550366878509521,1.6699689626693726,-1.8976833820343018
1761585613762060300,5.692060302734375,0.6300367712974548,1.5054234266281128,-1.2556504011154175
1761585613772034000,5.702033935546875,0.5780412554740906,0.9923726320266724,-0.7888789176940918
1761585613782008000,5.712008056640625,0.4892629086971283,0.28423091769218445,-0.5030684471130371
1761585613791981000,5.72198095703125,0.4747958183288574,-0.11525069177150726,-0.36361628770828247
1761585613801955000,5.731955078125,0.5726805925369263,-0.13828331232070923,-0.3291528522968292
1761585613811929000,5.74192919921875,0.7205334305763245,0.07563510537147522,-0.3942684829235077
1761585613821902000,5.751902099609375,0.8645526170730591,0.21904340386390686,-0.5788692235946655
1761585613831876000,5.7618759765625,0.9264652729034424,0.16526272892951965,-0.8610497713088989
1761585613841850000,5.77185009765625,0.8174239993095398,0.10622736811637878,-1.1312907934188843
1761585613851824000,5.78182421875,0.6255046129226685,0.22660385072231293,-1.267958402633667
1761585613861797000,5.791797119140625,0.48550650477409363,0.5921647548675537,-1.2698549032211304
1761585613871771100,5.801771240234375,0.4062569737434387,1.2277065515518188,-1.2187548875808716
1761585613881745200,5.8117451171875,0.3990080952644348,1.8385210037231445,-1.2352025508880615
1761585613891718100,5.82171826171875,0.4637775123119354,2.093964099884033,-1.3752518892288208
1761585613901692200,5.831692138671875,0.5035451650619507,1.9269046783447266,-1.5284539461135864
1761585613911666200,5.841666259765625,0.553053617477417,1.428587555885315,-1.5621490478515625
1761585613921640200,5.85164013671875,0.6367176175117493,0.8489717841148376,-1.4108623266220093
1761585613931613000,5.861613037109375,0.7929096221923828,0.5451951622962952,-1.108360767364502
1761585613941587000,5.8715869140625,0.9487854838371277,0.4533022344112396,-0.7281029224395752
1761585613951561000,5.88156103515625,1.016758918762207,0.510545015335083,-0.360324889421463
1761585613961535000,5.891534912109375,1.0316050052642822,0.7716969847679138,-0.12756595015525818
1761585613971508000,5.901508056640625,0.9606562852859497,0.944873571395874,-0.038712773472070694
1761585613981482000,5.91148193359375,0.7797605395317078,0.9555344581604004,-0.07938004285097122
1761585613991456000,5.9214560546875,0.519592821598053,0.9090796113014221,-0.23544634878635406
1761585614001429000,5.931428955078125,0.20661549270153046,0.5863886475563049,-0.4613726735115051
1761585614011403000,5.941403076171875,-0.08929632604122162,-0.20408442616462708,-0.6385785937309265
1761585614021377000,5.951376953125,-0.3130769431591034,-1.0608489513397217,-0.6188352704048157
1761585614031351000,5.96135107421875,-0.42359548807144165,-1.3542882204055786,-0.3154516816139221
1761585614041324000,5.971323974609375,-0.4452650845050812,-1.1401886940002441,0.42036107182502747
1761585614051298000,5.981298095703125,-0.31333181262016296,-0.5302838087081909,1.5146737098693848
1761585614061272000,5.99127197265625,-0.09347588568925858,0.3610045313835144,2.718376636505127
1761585614071245300,6.001245361328125,0.08444377779960632,1.1778730154037476,3.6729655265808105
1761585614081219000,6.011218994140625,0.22953972220420837,1.6991708278656006,4.322124004364014
1761585614091193000,6.021193115234375,0.3581722676753998,2.136946439743042,4.663186550140381
1761585614101166800,6.031166748046875,0.3991468548774719,2.530223846435547,4.852807998657227
1761585614111140000,6.04114013671875,0.4085635244846344,2.778022050857544,4.928531169891357
1761585614121114000,6.051114013671875,0.4297918379306793,3.0347952842712402,4.8100199699401855
1761585614131088100,6.061088134765625,0.39880383014678955,3.1390292644500732,4.587217330932617
1761585614141062100,6.071062255859375,0.31491801142692566,2.843757152557373,4.313818454742432
1761585614151035100,6.08103515625,0.2915884256362915,2.1156227588653564,3.9101505279541016
1761585614161009200,6.091009033203125,0.45150700211524963,0.5678024291992188,2.9850151538848877
1761585614170983200,6.100983154296875,0.7684316635131836,-1.5725841522216797,1.2828459739685059
1761585614180956200,6.1109560546875,1.148255705833435,-2.900172472000122,-0.3668328523635864
1761585614190930200,6.12093017578125,1.2269062995910645,-2.8643410205841064,-1.2118735313415527
1761585614200904200,6.130904296875,0.9800113439559937,-1.9222054481506348,-1.3811116218566895
1761585614210878200,6.140878173828125,0.6242089867591858,-0.6396116614341736,-1.277718424797058
1761585614220851200,6.150851318359375,0.3412393629550934,0.3617262542247772,-1.0601141452789307
1761585614230825200,6.1608251953125,0.2091076821088791,1.070183515548706,-0.8299528360366821
1761585614240799200,6.17079931640625,0.16768433153629303,1.4296879768371582,-0.6331340670585632
1761585614250773200,6.180773193359375,0.2443314492702484,1.4720969200134277,-0.5066133737564087
1761585614260746000,6.19074609375,0.3535463511943817,1.325631856918335,-0.45614728331565857
1761585614270720000,6.200719970703125,0.346687376499176,1.0090956687927246,-0.43641674518585205
1761585614280694000,6.210694091796875,0.2275007963180542,0.7914003729820251,-0.4433270990848541
1761585614290667000,6.2206669921875,0.07337195426225662,0.7010145783424377,-0.477182537317276
1761585614300641000,6.23064111328125,-0.09051551669836044,0.7334939241409302,-0.4735795557498932
1761585614310615000,6.240614990234375,-0.27300143241882324,0.9055008888244629,-0.4263526499271393
1761585614320589000,6.250589111328125,-0.42695850133895874,1.1387330293655396,-0.34682267904281616
1761585614330562000,6.26056201171875,-0.516900897026062,1.3309309482574463,-0.251801073551178
1761585614340536000,6.2705361328125,-0.5240398049354553,1.4140474796295166,-0.1835237592458725
1761585614350510000,6.280510009765625,-0.45498135685920715,1.3444713354110718,-0.14065831899642944
1761585614360484000,6.290484130859375,-0.35601162910461426,1.2089533805847168,-0.10720501840114594
1761585614370457000,6.30045703125,-0.2281617969274521,1.0076889991760254,-0.04023903235793114
1761585614380431000,6.31043115234375,-0.10589899867773056,0.903488039970398,0.050942011177539825
1761585614390405000,6.320405029296875,-0.01338557992130518,0.9033985733985901,0.1512041687965393
1761585614400378000,6.330378173828125,0.06427725404500961,0.9548031687736511,0.20798063278198242
1761585614410351900,6.340351806640625,0.10252024978399277,0.965196967124939,0.21550512313842773
1761585614420326000,6.350325927734375,0.09562772512435913,0.8144748210906982,0.16756875813007355
1761585614430300000,6.3602998046875,0.08528587222099304,0.3844723105430603,0.023485351353883743
1761585614440273200,6.370273193359375,0.054672032594680786,-0.15865355730056763,-0.19577403366565704
1761585614450247200,6.3802470703125,-0.05499880388379097,-0.696140468120575,-0.4030899405479431
1761585614460221000,6.390220947265625,-0.21058759093284607,-1.1261112689971924,-0.5007248520851135
1761585614470194200,6.400194091796875,-0.34308919310569763,-1.323625087738037,-0.519667387008667
1761585614480168200,6.410168212890625,-0.42980703711509705,-1.3216501474380493,-0.5737149119377136
1761585614490142200,6.42014208984375,-0.4504515826702118,-1.2678492069244385,-0.705561637878418
1761585614500116200,6.4301162109375,-0.43392160534858704,-1.2669097185134888,-0.9052944779396057
1761585614510089200,6.440089111328125,-0.4592069983482361,-1.3698842525482178,-1.1466537714004517
1761585614520064300,6.450064208984375,-0.4958406388759613,-1.526336431503296,-1.4526143074035645
1761585614530038300,6.460038330078125,-0.45683518052101135,-1.8063609600067139,-1.8556767702102661
1761585614540012300,6.47001220703125,-0.33826538920402527,-1.7373549938201904,-2.447160482406616
1761585614549985500,6.479985595703125,-0.1004594936966896,-1.6759315729141235,-3.07189679145813
1761585614559959300,6.489959228515625,0.2075238972902298,-1.8006972074508667,-3.628998041152954
1761585614569933300,6.499933349609375,0.5557457804679871,-2.0723910331726074,-4.127355575561523
1761585614579906300,6.50990625,0.9693349599838257,-2.5225367546081543,-4.527572154998779
1761585614589880300,6.51988037109375,1.5202583074569702,-3.188953399658203,-4.773021697998047
1761585614599854300,6.529854248046875,2.2529284954071045,-4.079177379608154,-4.753194808959961
1761585614609828400,6.539828369140625,3.06860613822937,-3.409250497817993,-4.135935306549072
1761585614619801300,6.54980126953125,3.5398478507995605,-1.6388739347457886,-3.015977621078491
1761585614629775400,6.559775390625,3.6563332080841064,0.1833391934633255,-1.7717174291610718
1761585614639749400,6.569749267578125,3.5053775310516357,1.8616286516189575,-0.6190776228904724
1761585614649722400,6.579722412109375,3.2354395389556885,3.022892951965332,0.41413167119026184
1761585614659696400,6.5896962890625,2.865959405899048,2.981519937515259,1.3835694789886475
1761585614669670400,6.59967041015625,1.9843639135360718,1.0819352865219116,1.8560608625411987
1761585614679644400,6.60964453125,0.22273507714271545,-0.5965486168861389,1.6047800779342651
1761585614689617400,6.619617431640625,-0.4505663812160492,-0.8389796018600464,1.3734617233276367
1761585614699591400,6.62959130859375,-0.34924161434173584,-0.8485555648803711,1.3432369232177734
1761585614709565400,6.6395654296875,-0.29878029227256775,-0.4331381022930145,1.6720472574234009
1761585614719539500,6.64953955078125,-0.24770593643188477,-0.09243618696928024,2.0779621601104736
1761585614729512200,6.65951220703125,-0.18587186932563782,0.1663098782300949,2.5206074714660645
1761585614739486200,6.669486328125,-0.10626678168773651,0.23895026743412018,2.982893943786621
1761585614749460200,6.679460205078125,-0.15509025752544403,-0.341005802154541,3.1589362621307373
1761585614759433200,6.68943310546875,-0.3757792115211487,-1.188173532485962,2.8180770874023438
1761585614769407200,6.6994072265625,-0.5922585129737854,-1.0793839693069458,2.375035047531128
1761585614779381200,6.70938134765625,-0.6500573754310608,-0.31759846210479736,2.135125160217285
1761585614789355300,6.719355224609375,-0.5485435128211975,0.43855684995651245,1.966040849685669
1761585614799328300,6.729328369140625,-0.3734729290008545,0.9595263004302979,1.650442361831665
1761585614809302300,6.73930224609375,-0.2295122891664505,1.1384613513946533,1.1741008758544922
1761585614819276300,6.7492763671875,-0.03870318830013275,1.0853550434112549,0.6878196597099304
1761585614829249300,6.759249267578125,0.1917521208524704,1.0587931871414185,0.28468605875968933
1761585614839223300,6.769223388671875,0.39926430583000183,0.8231013417243958,0.00953731220215559
1761585614849197300,6.779197265625,0.5306937098503113,0.3962530791759491,-0.0645611509680748
1761585614859171300,6.78917138671875,0.5826186537742615,-0.14980360865592957,-0.024036360904574394
1761585614869144300,6.799144287109375,0.5561220645904541,-0.6117305159568787,-0.03134966641664505
1761585614879118300,6.809118408203125,0.44523072242736816,-0.8348599672317505,-0.2438046783208847
1761585614889092400,6.81909228515625,0.3154285252094269,-0.7803003191947937,-0.6833218336105347
1761585614899066000,6.829066162109375,0.24452079832553864,-0.6099738478660583,-1.2302168607711792
1761585614909039400,6.839039306640625,0.3031383156776428,-0.784450888633728,-1.5367038249969482
1761585614919013400,6.849013427734375,0.4787202477455139,-0.9895763397216797,-1.3310595750808716
1761585614928987400,6.8589873046875,0.653037428855896,-1.075716495513916,-0.9556527137756348
1761585614938960400,6.86896044921875,0.8177145719528198,-1.5404030084609985,-0.6044906973838806
1761585614948934400,6.878934326171875,0.9813793897628784,-2.1502676010131836,-0.2340838611125946
1761585614958908400,6.888908447265625,1.1205767393112183,-2.6914210319519043,0.2157732993364334
1761585614968882400,6.89888232421875,1.1862657070159912,-3.1315956115722656,0.8212120532989502
1761585614978855400,6.90885546875,1.1608668565750122,-2.3818953037261963,1.2070159912109375
1761585614988829400,6.918829345703125,1.1364322900772095,-0.8049766421318054,1.310171127319336
1761585614998803500,6.928803466796875,1.3499598503112793,0.7840354442596436,1.0640630722045898
1761585615008777500,6.938777587890625,1.7043826580047607,1.4728444814682007,0.49183976650238037
1761585615018750500,6.94875048828125,1.8669475317001343,1.5796997547149658,-0.166954904794693
1761585615028724500,6.958724365234375,1.7420897483825684,1.3156033754348755,-0.6870497465133667
1761585615038698500,6.968698486328125,1.4506086111068726,0.9306538701057434,-0.9528388381004333
1761585615048671200,6.978671142578125,1.1520802974700928,0.621721088886261,-0.8958154916763306
1761585615058645200,6.988645263671875,0.937698483467102,0.39121463894844055,-0.5555974245071411
1761585615068619300,6.998619384765625,0.8857431411743164,0.010783139616250992,-0.0766867846250534
1761585615078593300,7.00859326171875,0.9298823475837708,-0.7883867621421814,0.43707266449928284
1761585615088566300,7.018566162109375,0.6928125619888306,-1.5146392583847046,0.7971080541610718
1761585615098540300,7.028540283203125,0.12299862504005432,-1.9506174325942993,0.882858157157898
1761585615108514300,7.038514404296875,-0.1949356645345688,-2.06003999710083,0.8036946058273315
1761585615118488300,7.04848828125,-0.21679915487766266,-1.8694837093353271,0.6491737365722656
1761585615128461300,7.05846142578125,-0.10390029847621918,-1.6720486879348755,0.5093007683753967
1761585615138435300,7.068435302734375,0.11511247605085373,-1.6011954545974731,0.4740178883075714
1761585615148409300,7.078409423828125,0.5501728653907776,-2.025529623031616,0.5908848643302917
1761585615158382300,7.08838232421875,0.9216276407241821,-3.0857536792755127,0.730507493019104
1761585615168356400,7.0983564453125,0.9162408709526062,-3.948437213897705,0.8073425889015198
1761585615178330400,7.108330322265625,0.64922034740448,-4.091316223144531,0.7205384969711304
1761585615188304400,7.118304443359375,0.5197741985321045,-3.686877489089966,0.5721628665924072
1761585615198277000,7.128277099609375,0.6153073906898499,-3.169830322265625,0.65578693151474
1761585615208251100,7.138251220703125,0.764213502407074,-3.471550941467285,0.8850554823875427
1761585615218225200,7.14822509765625,0.8922521471977234,-4.273358345031738,1.321096420288086
1761585615228199200,7.15819921875,0.9503018856048584,-5.324896812438965,1.8067238330841064
1761585615238172400,7.16817236328125,0.909380316734314,-5.920124053955078,2.3223114013671875
1761585615248146200,7.178146240234375,0.5532498955726624,-5.499857425689697,2.6181797981262207
1761585615258120200,7.1881201171875,-0.11944597214460373,-4.415130615234375,2.1733453273773193
1761585615268093400,7.198093505859375,-0.3356674909591675,-3.41526460647583,1.308165431022644
1761585615278067500,7.2080673828125,-0.09111100435256958,-3.1682324409484863,0.35486140847206116
1761585615288041500,7.21804150390625,0.3281072974205017,-3.1109468936920166,-0.47231242060661316
1761585615298015200,7.22801513671875,0.3441762924194336,-2.852806568145752,-1.2244300842285156
1761585615307988500,7.237988525390625,0.11060560494661331,-1.7365118265151978,-1.9427051544189453
1761585615317962500,7.24796240234375,0.09695690870285034,-0.749197781085968,-2.3835036754608154
1761585615327936500,7.2579365234375,0.3660869002342224,-0.5376560091972351,-2.528707981109619
1761585615337909200,7.2679091796875,0.8213031888008118,-0.7868919372558594,-2.5768113136291504
1761585615347883300,7.27788330078125,1.1262880563735962,-1.20048987865448,-2.6104254722595215
1761585615357857300,7.287857177734375,1.1042726039886475,-1.014455795288086,-2.5943474769592285
1761585615367831300,7.297831298828125,1.0195465087890625,-0.08742251992225647,-2.545814275741577
1761585615377804300,7.30780419921875,0.9761361479759216,0.6107059717178345,-2.4261558055877686
1761585615387778300,7.3177783203125,0.8849375247955322,0.98455810546875,-2.2369260787963867
1761585615397752300,7.32775244140625,0.6737105250358582,0.9083309769630432,-1.9448127746582031
1761585615407726300,7.337726318359375,0.27473461627960205,0.4251720607280731,-1.4879658222198486
1761585615417699300,7.34769921875,0.07325024157762527,0.2463834136724472,-1.027053952217102
1761585615427673300,7.35767333984375,0.017597636207938194,0.2726709544658661,-0.49293914437294006
1761585615437647400,7.3676474609375,-0.10938401520252228,0.3843553960323334,0.1424516886472702
1761585615447620400,7.377620361328125,-0.29468461871147156,0.613804817199707,0.8162053227424622
1761585615457594400,7.387594482421875,-0.44742918014526367,0.495343416929245,1.4245134592056274
1761585615467568400,7.397568359375,-0.6568465828895569,-0.20276163518428802,1.961944341659546
1761585615477542400,7.40754248046875,-1.0062346458435059,-1.4810147285461426,2.355337381362915
1761585615487515100,7.41751513671875,-1.7611063718795776,-3.423297882080078,2.195157051086426
1761585615497489200,7.4274892578125,-2.538966417312622,-4.69512939453125,2.094928026199341
1761585615507463200,7.437463134765625,-2.9690494537353516,-5.1561994552612305,2.5181806087493896
1761585615517436400,7.4474365234375,-3.2073421478271484,-5.639729976654053,2.9994683265686035
1761585615527409700,7.45740966796875,-3.4161970615386963,-5.421454429626465,3.295813798904419
1761585615537383700,7.4673837890625,-2.9657812118530273,-4.055835247039795,2.9521875381469727
1761585615547357400,7.477357421875,-1.9265493154525757,-1.4900833368301392,2.0931944847106934
1761585615557330700,7.48733056640625,-0.902733564376831,2.0350327491760254,1.078159213066101
1761585615567304700,7.4973046875,-0.2155221700668335,3.7568581104278564,-0.30710747838020325
1761585615577278700,7.50727880859375,-0.1311178058385849,3.771200656890869,-1.0902094841003418
1761585615587252700,7.517252685546875,-0.4802318513393402,2.711509943008423,-1.3073630332946777
1761585615597225700,7.527225830078125,-0.9838199019432068,1.2469303607940674,-1.3041486740112305
1761585615607199700,7.53719970703125,-1.5588080883026123,-0.2741045355796814,-1.1879874467849731
1761585615617173800,7.547173828125,-2.0100133419036865,-1.5360918045043945,-0.9012835025787354
1761585615627147800,7.557147705078125,-2.334789514541626,-2.0552139282226562,-0.419167697429657
1761585615637120500,7.56712060546875,-2.4756460189819336,-1.8760297298431396,0.14063754677772522
1761585615647094500,7.577094482421875,-2.335501194000244,-1.6598124504089355,0.5927525162696838
1761585615657068500,7.587068603515625,-1.9982589483261108,-1.490108609199524,1.0457508563995361
1761585615667041500,7.59704150390625,-1.5294469594955444,-1.346110224723816,1.6094297170639038
1761585615677015600,7.607015625,-1.1741163730621338,-0.9174227714538574,1.9282093048095703
1761585615686989600,7.616989501953125,-1.0812844038009644,-0.7352007627487183,1.8800638914108276
1761585615696963600,7.626963623046875,-1.2044286727905273,-0.9457944631576538,1.6513558626174927
1761585615706936600,7.6369365234375,-1.5440843105316162,-1.4063634872436523,1.2073293924331665
1761585615716910600,7.64691064453125,-2.063971519470215,-1.7225350141525269,0.6292439699172974
1761585615726884600,7.656884521484375,-2.6878085136413574,-2.3178093433380127,0.2320002168416977
1761585615736858600,7.666858642578125,-3.338831663131714,-3.011586904525757,-0.028734974563121796
1761585615746831600,7.67683154296875,-3.9421420097351074,-3.0746262073516846,-0.22095048427581787
1761585615756805600,7.6868056640625,-4.298583507537842,-2.9508121013641357,-0.3776303827762604
1761585615766779600,7.696779541015625,-4.4378662109375,-3.2296664714813232,-0.5308990478515625
1761585615776752400,7.70675244140625,-4.5127692222595215,-3.6504056453704834,-0.7324116230010986
1761585615786726400,7.716726318359375,-4.465271472930908,-4.091353893280029,-1.038262963294983
1761585615796700400,7.726700439453125,-4.285550117492676,-4.247987747192383,-1.4022786617279053
1761585615806674400,7.73667431640625,-4.079683303833008,-4.176159858703613,-1.727381706237793
1761585615816647400,7.7466474609375,-4.060999870300293,-2.7490458488464355,-0.9991674423217773
1761585615826621400,7.756621337890625,-4.425298690795898,-3.0230488777160645,0.05259104073047638
1761585615836595500,7.766595458984375,-4.9467668533325195,-2.745382070541382,0.9704647064208984
1761585615846569500,7.776569580078125,-5.37645149230957,-2.9243812561035156,1.521972894668579
1761585615856542500,7.78654248046875,-5.872053146362305,-3.238003969192505,1.4728997945785522
1761585615866516500,7.7965166015625,-6.444402694702148,-3.423187255859375,1.0755293369293213
1761585615876490500,7.806490478515625,-6.767967700958252,-3.3698744773864746,0.5990184545516968
1761585615886463700,7.816463623046875,-6.681204319000244,-3.18515682220459,0.2235281616449356
1761585615896437800,7.826437744140625,-6.311071872711182,-2.893568515777588,-0.014665229246020317
1761585615906411500,7.83641162109375,-5.831586837768555,-2.5385243892669678,-0.12945838272571564
1761585615916385500,7.846385498046875,-5.375182628631592,-2.2088379859924316,-0.13723056018352509
1761585615926358500,7.856358642578125,-4.977351188659668,-2.0141851902008057,-0.0634993463754654
1761585615936332500,7.86633251953125,-4.645191669464111,-1.8918683528900146,0.047635164111852646
1761585615946306600,7.876306640625,-4.36480188369751,-1.1867226362228394,0.531243622303009
1761585615956280600,7.886280517578125,-3.9652421474456787,-1.3238650560379028,0.9606142044067383
1761585615966253600,7.896253662109375,-3.7129039764404297,-1.230961799621582,1.2517973184585571
1761585615976227600,7.9062275390625,-3.573035955429077,-1.2324278354644775,1.3069891929626465
1761585615986201600,7.91620166015625,-3.5652687549591064,-1.2845408916473389,1.2045512199401855
1761585615996174600,7.926174560546875,-3.6009974479675293,-1.4910112619400024,1.0410118103027344
1761585616006148600,7.936148681640625,-3.7121126651763916,-1.6743144989013672,0.8323071002960205
1761585616016122600,7.94612255859375,-3.9483225345611572,-1.7959392070770264,0.5804846882820129
1761585616026096600,7.9560966796875,-4.265162944793701,-1.9904510974884033,0.33116087317466736
1761585616036069600,7.966069580078125,-4.621031284332275,-2.0988035202026367,0.11431485414505005
1761585616046043600,7.976043701171875,-4.99091100692749,-2.0931262969970703,-0.024827318266034126
1761585616056017700,7.986017578125,-5.336225986480713,-2.1267316341400146,-0.13720153272151947
1761585616065990700,7.99599072265625,-5.569672584533691,-1.9676928520202637,-0.2430211752653122
1761585616075964700,8.005964599609374,-5.594441890716553,-1.8625783920288086,-0.31657713651657104
1761585616085937400,8.0159375,-5.4198222160339355,-1.7062044143676758,-0.34145665168762207
1761585616095911400,8.025911376953125,-5.113284111022949,-1.4602386951446533,-0.3050254285335541
1761585616105885400,8.035885498046875,-4.737484455108643,-1.2908365726470947,-0.2181517779827118
1761585616115858400,8.0458583984375,-4.433913230895996,-1.2490966320037842,-0.06775667518377304
1761585616125832400,8.05583251953125,-4.252452850341797,-1.1678709983825684,0.12149420380592346
1761585616135806500,8.065806396484374,-4.132534027099609,-1.0074900388717651,0.3732161819934845
1761585616145780500,8.075780517578124,-4.050244331359863,-0.8252888321876526,0.643457293510437
1761585616155753700,8.085753662109376,-3.9304158687591553,-0.6773979067802429,0.8638900518417358
1761585616165727500,8.0957275390625,-3.7647199630737305,-0.6024246215820312,0.982162594795227
1761585616175701500,8.105701416015625,-3.667226791381836,-0.4259297251701355,0.9735164046287537
1761585616185674800,8.1156748046875,-3.806727647781372,-0.45643410086631775,0.8198850154876709
1761585616195648800,8.125648681640625,-3.9714725017547607,-0.393575519323349,0.5516825914382935
1761585616205622800,8.135622802734375,-4.003643035888672,-0.4035826325416565,0.26061373949050903
1761585616215596800,8.1455966796875,-3.9913413524627686,-0.45113494992256165,0.08536922931671143
1761585616225569500,8.155569580078126,-3.9716219902038574,-0.4650276005268097,0.04484337195754051
1761585616235543600,8.16554345703125,-3.8731138706207275,-0.38318973779678345,0.07311229407787323
1761585616245517600,8.175517578125,-3.689408540725708,-0.3790264129638672,0.10938534885644913
1761585616255491600,8.18549169921875,-3.496471643447876,-0.43621405959129333,0.15773902833461761
1761585616265464600,8.195464599609375,-3.382362127304077,-0.374899297952652,0.27117636799812317
1761585616275438600,8.2054384765625,-3.2100229263305664,-0.22723475098609924,0.40160176157951355
1761585616285412600,8.21541259765625,-2.898930549621582,-0.1689930111169815,0.49091219902038574
1761585616295385600,8.225385498046874,-2.4821419715881348,-0.19431088864803314,0.5128862261772156
1761585616305359600,8.235359619140626,-2.1169018745422363,-0.22452259063720703,0.4950326383113861
1761585616315333600,8.245333740234376,-1.865112066268921,-0.21684814989566803,0.467434823513031
1761585616325307600,8.2553076171875,-1.7105108499526978,-0.25892743468284607,0.4576839506626129
1761585616335280600,8.26528076171875,-1.613967776298523,-0.2888701558113098,0.448678195476532
1761585616345254700,8.275254638671875,-1.709302544593811,-0.3046935796737671,0.4478965401649475
1761585616355228700,8.285228759765625,-2.1282012462615967,-0.20940914750099182,0.5011131763458252
1761585616365202700,8.29520263671875,-2.6585843563079834,-0.06207908317446709,0.6238769292831421
1761585616375175400,8.305175537109376,-3.117316246032715,0.010751980356872082,0.834063708782196
1761585616385149400,8.3151494140625,-3.404348134994507,0.09199224412441254,1.049914002418518
1761585616395123500,8.32512353515625,-3.394251585006714,0.1311255246400833,1.153194785118103
1761585616405096400,8.335096435546875,-3.039276123046875,0.06053684651851654,1.0725092887878418
1761585616415070500,8.345070556640625,-2.513577461242676,-0.2210911065340042,0.8295272588729858
1761585616425044500,8.35504443359375,-2.1211585998535156,-0.5424132347106934,0.5448787808418274
1761585616435018500,8.3650185546875,-1.8717122077941895,-0.5309206247329712,0.29246702790260315
1761585616444991500,8.374991455078124,-1.6256965398788452,-0.3245013952255249,0.1099853590130806
1761585616454965500,8.384965576171876,-1.304578423500061,-0.2655682861804962,-0.011990083381533623
1761585616464939500,8.394939453125,-0.9015921354293823,-0.1094798892736435,-0.08568134903907776
1761585616474912800,8.404912841796875,-0.5909724831581116,0.08255240321159363,-0.08140883594751358
1761585616484886500,8.414886474609375,-0.4781535267829895,0.11122692376375198,-0.0375463105738163
1761585616494860500,8.424860595703125,-0.504429042339325,0.09969809651374817,-0.010147974826395512
1761585616504834600,8.43483447265625,-0.5886568427085876,0.027004985138773918,-0.004577707499265671
1761585616514807800,8.444807861328124,-0.7122645378112793,-0.12158501893281937,-0.025225462391972542
1761585616524781800,8.45478173828125,-0.8751379251480103,-0.23344923555850983,-0.04899124428629875
1761585616534755600,8.464755615234376,-1.014291524887085,-0.29643911123275757,-0.05595221370458603
1761585616544729600,8.4747294921875,-1.096193552017212,-0.3527394235134125,-0.07633578032255173
1761585616554702800,8.484702880859375,-1.1215153932571411,-0.2590651214122772,-0.11999937146902084
1761585616564676900,8.4946767578125,-1.1082090139389038,-0.09119808673858643,-0.19749443233013153
1761585616574651000,8.50465087890625,-1.1786279678344727,-0.1269765943288803,-0.3696342408657074
1761585616584623900,8.514623779296874,-1.285658359527588,-0.11329060792922974,-0.593636691570282
1761585616594598000,8.524597900390624,-1.35356605052948,-0.0641864463686943,-0.8274180293083191
1761585616604572000,8.534572021484376,-1.3553476333618164,-0.05303019657731056,-1.0182095766067505
1761585616614546000,8.5445458984375,-1.2567867040634155,0.026989806443452835,-1.174544334411621
1761585616624518700,8.5545185546875,-1.0669935941696167,0.049074336886405945,-1.2939873933792114
1761585616634492700,8.56449267578125,-0.865224301815033,0.0573948509991169,-1.3717838525772095
1761585616644466700,8.574466796875,-0.7149876356124878,0.2281082719564438,-1.3983768224716187
1761585616654440700,8.584440673828125,-0.5846788883209229,0.37714648246765137,-1.3841854333877563
1761585616664413700,8.59441357421875,-0.4021533131599426,0.4570317268371582,-1.3274827003479004
1761585616674387700,8.6043876953125,-0.06821207702159882,0.6016948819160461,-1.2182930707931519
1761585616684361700,8.61436181640625,0.38198330998420715,0.3401290774345398,-1.2210735082626343
1761585616694334700,8.624334716796875,0.8856834769248962,0.18857604265213013,-1.2508811950683594
1761585616704308700,8.634308837890625,1.4273182153701782,0.08825822174549103,-1.2939218282699585
1761585616714284500,8.644284423828125,1.8469488620758057,0.1531647890806198,-1.3538661003112793
1761585616724258600,8.654258544921875,2.0137763023376465,0.2975917458534241,-1.4026371240615845
1761585616734231800,8.664231689453125,1.9769067764282227,0.3842885494232178,-1.4252409934997559
1761585616744205800,8.674205810546875,1.7990281581878662,0.39714574813842773,-1.3917146921157837
1761585616754179800,8.684179931640625,1.5457205772399902,0.28543999791145325,-1.257780909538269
1761585616764153600,8.694153564453124,1.1394941806793213,0.2776515781879425,-1.045125126838684
1761585616774126800,8.704126953125,0.5443751811981201,0.1257334202528,-0.8041175007820129
1761585616784100900,8.714100830078126,-0.16085439920425415,0.06674547493457794,-0.6034350395202637
1761585616794075000,8.724074951171875,-0.980445146560669,0.05871710926294327,-0.41137900948524475
1761585616804049000,8.734048828125,-1.8233036994934082,-0.08418118953704834,-0.19342298805713654
1761585616814021600,8.744021728515625,-2.5408248901367188,-0.07891824841499329,0.037572141736745834
1761585616823995600,8.75399560546875,-3.041342258453369,0.04689453914761543,0.3126247525215149
1761585616833969700,8.7639697265625,-3.152374505996704,0.3415085971355438,0.6485604047775269
1761585616843942700,8.773942626953126,-2.832733154296875,0.5145448446273804,1.0214897394180298
1761585616853916700,8.783916748046876,-2.250650644302368,0.5660071969032288,1.3683491945266724
1761585616863890700,8.793890625,-1.5400210618972778,0.7494825124740601,1.5498894453048706
1761585616873864700,8.80386474609375,-0.9729816317558289,0.7649498581886292,1.6018143892288208
1761585616883837700,8.813837646484375,-0.5777634978294373,0.6193442344665527,1.6528387069702148
1761585616893811700,8.823811767578125,-0.1998731642961502,0.48370862007141113,1.7003191709518433
1761585616903785700,8.83378564453125,0.1936003565788269,0.3095855414867401,1.665007472038269
1761585616913759700,8.843759765625,0.5950955748558044,0.05359718203544617,1.5921229124069214
1761585616923732700,8.853732666015626,0.9663940668106079,-0.20729991793632507,1.5474127531051636
1761585616933706800,8.863706787109376,1.2138307094573975,-0.3493601381778717,1.4545029401779175
1761585616943680800,8.8736806640625,1.3077929019927979,-0.036201946437358856,1.0978870391845703
1761585616953653800,8.88365380859375,1.3252406120300293,0.02322755753993988,0.7823464274406433
1761585616963627800,8.893627685546875,1.2930967807769775,0.2552695870399475,0.4462728202342987
1761585616973601800,8.903601806640625,1.1701570749282837,0.533776044845581,0.09666262567043304
1761585616983575800,8.913575927734374,0.9770453572273254,0.5723924040794373,-0.1976664662361145
1761585616993548500,8.923548583984376,0.7865766286849976,0.315941721200943,-0.43643245100975037
1761585617003522600,8.9335224609375,0.6122138500213623,0.029835660010576248,-0.6689937710762024
1761585617013496600,8.94349658203125,0.44460248947143555,-0.16631653904914856,-0.9538446664810181
1761585617023469600,8.953469482421875,0.3103770315647125,-0.26530542969703674,-1.2636054754257202
1761585617033443600,8.963443603515625,0.1988595724105835,-0.15963679552078247,-1.5252008438110352
1761585617043417600,8.97341748046875,0.11222800612449646,-0.01900431700050831,-1.6813132762908936
1761585617053391600,8.9833916015625,0.11521606892347336,-0.08596231043338776,-1.7246687412261963
1761585617063364900,8.99336474609375,0.3224342465400696,-0.23193229734897614,-1.7120639085769653
1761585617073338600,9.003338623046876,0.6673135757446289,-0.49910834431648254,-1.6704260110855103
1761585617083312600,9.013312744140626,1.1000863313674927,-0.8034613132476807,-1.6204158067703247
1761585617093286700,9.02328662109375,1.5977693796157837,-0.8432718515396118,-1.5776104927062988
1761585617103260000,9.033260009765625,2.1008718013763428,-0.5685151219367981,-1.5465167760849
1761585617113234000,9.04323388671875,2.554297685623169,-0.23770390450954437,-1.5071539878845215
1761585617123207700,9.053207763671875,2.8419220447540283,-0.03081437200307846,-1.4492536783218384
1761585617133180700,9.0631806640625,2.923978567123413,0.07249550521373749,-1.3781315088272095
1761585617143154700,9.07315478515625,2.8854920864105225,0.12708045542240143,-1.2675615549087524
1761585617153128700,9.083128662109376,2.7395379543304443,0.1645018607378006,-1.1009918451309204
1761585617163102700,9.093102783203125,2.5192394256591797,0.22869735956192017,-0.9037927389144897
1761585617173075700,9.10307568359375,2.333998680114746,0.5884147882461548,-0.6749097108840942
1761585617183049700,9.1130498046875,2.229884624481201,0.8170913457870483,-0.3950767517089844
1761585617193023700,9.123023681640625,2.1602303981781006,0.8697423338890076,-0.10369577258825302
1761585617202997800,9.132997802734375,1.9903125762939453,0.701587975025177,0.17748263478279114
1761585617212970800,9.142970703125,1.7665495872497559,0.5659278631210327,0.43935471773147583
1761585617222944800,9.15294482421875,1.5578142404556274,0.5804260969161987,0.6790403127670288
1761585617232918800,9.162918701171876,1.4018874168395996,0.8067988157272339,0.9400274157524109
1761585617242891800,9.172891845703125,1.3393316268920898,1.0835562944412231,1.2231155633926392
1761585617252865800,9.18286572265625,1.3800008296966553,1.181931972503662,1.4900425672531128
1761585617262839800,9.19283984375,1.3838615417480469,0.8933746814727783,1.6818403005599976
1761585617272813800,9.202813720703125,1.3301753997802734,0.6021718978881836,1.8071672916412354
1761585617282786600,9.21278662109375,1.209286093711853,0.4561145305633545,1.903278112411499
1761585617292760600,9.222760498046876,1.0229140520095825,0.37601569294929504,1.9825021028518677
1761585617302734600,9.232734619140626,0.8216938376426697,0.3309696614742279,2.0261833667755127
1761585617312708600,9.24270849609375,0.6327081918716431,0.33028045296669006,2.0332584381103516
1761585617322681600,9.252681640625,0.49212685227394104,0.3012370765209198,1.9912934303283691
1761585617332655600,9.262655517578125,0.3925158679485321,0.10982529819011688,1.8887873888015747
1761585617342629600,9.272629638671875,0.33783555030822754,-0.09538324177265167,1.7208012342453003
1761585617352602600,9.2826025390625,0.3300929665565491,-0.14323864877223969,1.4195146560668945
1761585617362576600,9.29257666015625,0.3530060052871704,-0.14694656431674957,0.91163170337677
1761585617372550700,9.302550537109376,0.3932135999202728,-0.3302335739135742,0.4089171886444092
1761585617382524700,9.312524658203126,0.39167216420173645,-0.38492265343666077,-0.02936321496963501
1761585617392497700,9.32249755859375,0.37302711606025696,-0.21825137734413147,-0.40989404916763306
1761585617402471700,9.3324716796875,0.42193764448165894,-0.05717114359140396,-0.7021536231040955
1761585617412445700,9.34244580078125,0.5614396333694458,-0.06406127661466599,-0.896762490272522
1761585617422418700,9.352418701171874,0.7302355766296387,-0.027219902724027634,-1.0114339590072632
1761585617432392700,9.362392822265624,0.851249098777771,0.11074808239936829,-1.0317858457565308
1761585617442366700,9.37236669921875,0.9355618357658386,0.17309534549713135,-0.961689829826355
1761585617452340500,9.382340576171876,1.0128456354141235,0.1634744107723236,-0.8728649020195007
1761585617462313700,9.392313720703125,1.0721359252929688,0.12610013782978058,-0.7939810156822205
1761585617472287700,9.402287841796875,1.1196900606155396,0.1217205747961998,-0.7459223866462708
1761585617482261800,9.41226171875,1.1453161239624023,0.20629404485225677,-0.6986387372016907
1761585617492235800,9.42223583984375,1.138083815574646,0.3190520107746124,-0.6314938068389893
1761585617502208800,9.432208740234374,1.1093900203704834,0.41317665576934814,-0.5568262338638306
1761585617512182300,9.442182373046874,1.063687801361084,0.5191217064857483,-0.5035308003425598
1761585617522156300,9.45215625,1.0336359739303589,0.6352598071098328,-0.4628185033798218
1761585617532129300,9.46212939453125,1.052010416984558,0.7364537715911865,-0.4337165653705597
1761585617542103300,9.472103271484375,1.086835503578186,0.8095729947090149,-0.41533249616622925
1761585617552077300,9.482077392578125,1.0838967561721802,0.7411540150642395,-0.41677406430244446
1761585617562051300,9.49205126953125,1.0016201734542847,0.6376598477363586,-0.43245553970336914
1761585617572024300,9.5020244140625,0.8442146182060242,0.5685462951660156,-0.43044859170913696
1761585617581998300,9.511998291015624,0.6532670259475708,0.4958968460559845,-0.37713557481765747
1761585617591972400,9.521972412109376,0.507404625415802,0.37691637873649597,-0.2822948098182678
1761585617601946400,9.5319462890625,0.40326038002967834,0.37251925468444824,-0.16133083403110504
1761585617611919400,9.54191943359375,0.3182847797870636,0.4679088890552521,-0.025770343840122223
1761585617621893400,9.551893310546875,0.3082773983478546,0.5264267921447754,0.0674903616309166
1761585617631867400,9.561867431640625,0.3608767092227936,0.4928818643093109,0.08834237605333328
1761585617641840000,9.571840087890624,0.4373056888580322,0.4208548069000244,0.04319727048277855
1761585617651814100,9.581814208984374,0.507847249507904,0.40134769678115845,-0.03273317962884903
1761585617661788200,9.5917880859375,0.5740265250205994,0.4001340866088867,-0.11272228509187698
1761585617671762200,9.60176220703125,0.619637668132782,0.42009180784225464,-0.17628714442253113
1761585617681735200,9.611735107421875,0.6234439015388489,0.43198361992836,-0.20429907739162445
1761585617691709200,9.621709228515625,0.5983832478523254,0.3672696053981781,-0.18838562071323395
1761585617701683200,9.63168310546875,0.5750774145126343,0.304326593875885,-0.13327762484550476
1761585617711656400,9.641656494140625,0.5522224307060242,0.41619881987571716,-0.05831417441368103
1761585617721630200,9.651630126953124,0.549690306186676,0.6137118935585022,0.03298244997859001
1761585617731604200,9.661604248046874,0.6156309843063354,0.7746898531913757,0.11038003861904144
1761585617741578200,9.671578125,0.7501448392868042,0.8841857314109802,0.1489812284708023
1761585617751551500,9.681551513671875,0.9092791080474854,0.9682265520095825,0.14807309210300446
1761585617761525500,9.691525390625,1.0357632637023926,1.0710147619247437,0.12223882973194122
1761585617771499500,9.70149951171875,1.1272809505462646,1.1499474048614502,0.08072973042726517
1761585617781473300,9.711473388671875,1.1749664545059204,1.1169023513793945,0.02557273767888546
1761585617791446300,9.7214462890625,1.1860915422439575,1.099616289138794,-0.01338611263781786
1761585617801420300,9.731420166015624,1.1797106266021729,1.0392301082611084,-0.02118890918791294
1761585617811394300,9.741394287109374,1.1872869729995728,0.9218739867210388,-0.026136262342333794
1761585617821367300,9.7513671875,1.2073882818222046,0.724159836769104,-0.012497415766119957
1761585617831341300,9.76134130859375,1.2285593748092651,0.5237274169921875,0.030253775417804718
1761585617841315300,9.7713154296875,1.2227352857589722,0.45024627447128296,0.09886959195137024
1761585617851289300,9.781289306640625,1.1970536708831787,0.40802398324012756,0.16774559020996094
1761585617861262300,9.791262451171875,1.1482969522476196,0.319384902715683,0.188063383102417
1761585617871236400,9.801236328125,1.096466064453125,0.3080739378929138,0.1350848525762558
1761585617881210400,9.81121044921875,1.0659102201461792,0.37985092401504517,0.01305321790277958
1761585617891184400,9.821184326171876,1.0544980764389038,0.4482550024986267,-0.14383120834827423
1761585617901157400,9.831157470703126,1.041871190071106,0.45889779925346375,-0.27018675208091736
1761585617911131400,9.84113134765625,1.000246286392212,0.514284610748291,-0.3192403018474579
1761585617921105400,9.85110546875,0.9016504883766174,0.5605512261390686,-0.29431790113449097
1761585617931078400,9.861078369140625,0.7792494297027588,0.4584125876426697,-0.2512527406215668
1761585617941052400,9.871052490234375,0.6827144026756287,0.2779746353626251,-0.22248873114585876
1761585617951026400,9.8810263671875,0.6277081370353699,0.06784163415431976,-0.22424376010894775
1761585617961000400,9.89100048828125,0.6285566091537476,-0.06137627363204956,-0.22806724905967712
1761585617970973200,9.90097314453125,0.656097948551178,-0.15358956158161163,-0.2078663855791092
1761585617980947200,9.910947265625,0.6744607090950012,-0.2665259540081024,-0.16930752992630005
1761585617990921200,9.920921142578125,0.6813958883285522,-0.4014749825000763,-0.13395433127880096
1761585618000894200,9.930894287109375,0.6601629853248596,-0.487641304731369,-0.10749849677085876
1761585618010868200,9.9408681640625,0.6223687529563904,-0.5602702498435974,-0.08627630025148392
1761585618020842200,9.95084228515625,0.5745359659194946,-0.6087823510169983,-0.0792309045791626
1761585618030816300,9.960816162109374,0.5349342226982117,-0.6342392563819885,-0.08932987600564957
1761585618040789200,9.970789306640626,0.5355270504951477,-0.5557316541671753,-0.1583414375782013
1761585618050763300,9.98076318359375,0.5709699988365173,-0.40690144896507263,-0.29600289463996887
1761585618060737300,9.9907373046875,0.5954793691635132,-0.24134844541549683,-0.4573478400707245
1761585618070711300,10.000711181640625,0.5614287257194519,-0.02930462546646595,-0.6020981073379517
1761585618080684500,10.0106845703125,0.4820726215839386,0.14834259450435638,-0.6862459778785706
1761585618090658300,10.020658203125,0.414010226726532,0.22573725879192352,-0.70174241065979
1761585618100632300,10.03063232421875,0.37251871824264526,0.26500263810157776,-0.6413571238517761
1761585618110605300,10.040605224609376,0.32378605008125305,0.24322783946990967,-0.5046519637107849
1761585618120579300,10.050579345703126,0.22960469126701355,0.12918753921985626,-0.267523854970932
1761585618130553300,10.06055322265625,0.16754105687141418,-0.016290822997689247,-0.029268672689795494
1761585618140527400,10.07052734375,0.1773124635219574,-0.14778946340084076,0.12851457297801971
1761585618150500400,10.080500244140625,0.22449861466884613,-0.27720656991004944,0.19934746623039246
1761585618160474400,10.090474365234375,0.27716901898384094,-0.38152286410331726,0.19632050395011902
1761585618170448400,10.100448486328125,0.3169928789138794,-0.3338885009288788,0.15260152518749237
1761585618180422400,10.11042236328125,0.3089751601219177,0.0237580593675375,0.12870338559150696
1761585618190395400,10.1203955078125,0.2556581497192383,0.3879788815975189,0.1364462524652481
1761585618200369400,10.130369384765626,0.2249513566493988,0.492870956659317,0.14640088379383087
1761585618210343400,10.140343505859375,0.19306878745555878,0.3845479488372803,0.1390465646982193
1761585618220316400,10.15031640625,0.1245935931801796,0.2014673352241516,0.09647860378026962
1761585618230290400,10.16029052734375,0.03888028860092163,0.021913820877671242,0.03454892337322235
1761585618240264400,10.170264404296875,-0.03194887936115265,-0.13522040843963623,-0.023486150428652763
1761585618250238500,10.180238525390624,-0.05005437880754471,-0.22980231046676636,-0.06956150382757187
1761585618260211200,10.190211181640626,-0.01149793155491352,-0.27488961815834045,-0.10227710008621216
1761585618270185200,10.200185302734376,0.0672575980424881,-0.25030916929244995,-0.09370039403438568
1761585618280159200,10.2101591796875,0.14730849862098694,-0.20750418305397034,-0.03849892318248749
1761585618290133200,10.22013330078125,0.20582853257656097,-0.18224197626113892,0.011622301302850246
1761585618300106200,10.230106201171875,0.25065991282463074,-0.2617280185222626,0.04903998225927353
1761585618310080300,10.240080322265625,0.2559516131877899,-0.33977940678596497,0.07711902260780334
1761585618320054300,10.25005419921875,0.24243927001953125,-0.31580910086631775,0.11893730610609055
1761585618330027300,10.26002734375,0.20758594572544098,-0.24515409767627716,0.15074211359024048
1761585618340001300,10.270001220703126,0.13911794126033783,-0.18641382455825806,0.16221287846565247
1761585618349975300,10.279975341796876,0.05288372188806534,-0.16494101285934448,0.1391693353652954
1761585618359949300,10.28994921875,-0.029748041182756424,-0.17686398327350616,0.09518536925315857
1761585618369922300,10.29992236328125,-0.09650230407714844,-0.24599085748195648,0.0578949898481369
1761585618379896300,10.309896240234375,-0.1425907015800476,-0.3163880705833435,0.026012958958745003
1761585618389870300,10.319870361328125,-0.1572066694498062,-0.3184903562068939,0.012178901582956314
1761585618399843300,10.32984326171875,-0.1393539011478424,-0.3031950294971466,0.018330803140997887
1761585618409817300,10.3398173828125,-0.09464208781719208,-0.20634305477142334,0.0421019122004509
1761585618419791000,10.349791015625,-0.08088099956512451,-0.10820130258798599,0.063116654753685
1761585618429765000,10.35976513671875,-0.10165472328662872,-0.05174974724650383,0.06916122883558273
1761585618439738400,10.36973828125,-0.1687469333410263,0.025165274739265442,0.058883823454380035
1761585618449712400,10.37971240234375,-0.2514956295490265,0.002493251347914338,0.05007088929414749
1761585618459686400,10.389686279296875,-0.29656028747558594,-0.13769927620887756,0.03634202852845192
1761585618469660200,10.39966015625,-0.29401111602783203,-0.15153999626636505,0.03760996088385582
1761585618479633400,10.40963330078125,-0.23775184154510498,-0.020805146545171738,0.054610513150691986
1761585618489607400,10.419607421875,-0.1426682025194168,0.246958926320076,0.1011255532503128
1761585618499581400,10.42958154296875,-0.03316833823919296,0.5477666854858398,0.1675618290901184
1761585618509554400,10.439554443359375,0.08474311977624893,0.7285851836204529,0.2278219759464264
1761585618519528400,10.449528564453125,0.141291081905365,0.6777001619338989,0.23282712697982788
1761585618529502500,10.45950244140625,0.11004634201526642,0.4644443690776825,0.15708282589912415
1761585618539476500,10.4694765625,0.060511812567710876,0.10093273967504501,0.04012211784720421
1761585618549449500,10.479449462890624,0.055751144886016846,-0.19357186555862427,-0.04050295054912567
1761585618559423500,10.489423583984374,0.08791334182024002,-0.3435392677783966,-0.08979273587465286
1761585618569397500,10.4993974609375,0.1034877747297287,-0.41394898295402527,-0.08074784278869629
1761585618579371500,10.50937158203125,0.12098953872919083,-0.29191094636917114,-0.06584532558917999
1761585618589344500,10.519344482421875,0.19404271245002747,-0.13777704536914825,-0.09074721485376358
1761585618599318500,10.529318603515625,0.2974761426448822,-0.06703416258096695,-0.16117770969867706
1761585618609292500,10.53929248046875,0.4203045964241028,0.0353955402970314,-0.2630920708179474
1761585618619265500,10.549265625,0.6040347814559937,0.22206023335456848,-0.3716268241405487
1761585618629239600,10.559239501953124,0.7998349070549011,0.42012909054756165,-0.44704753160476685
1761585618639213600,10.569213623046876,0.9293867349624634,0.5576558113098145,-0.4715254604816437
1761585618649187600,10.5791875,0.9131201505661011,0.5467144846916199,-0.4611945152282715
1761585618659160300,10.589160400390625,0.757712185382843,0.36396968364715576,-0.4519576132297516
1761585618669134300,10.59913427734375,0.5144543051719666,0.11938098818063736,-0.42843204736709595
1761585618679108400,10.6091083984375,0.21891289949417114,-0.1190241277217865,-0.3855399787425995
1761585618689082400,10.619082275390625,-0.0179305300116539,-0.2838740646839142,-0.34403860569000244
1761585618699055400,10.629055419921874,-0.14625202119350433,-0.37911587953567505,-0.29764261841773987
1761585618709029400,10.639029296875,-0.1994720995426178,-0.4057733416557312,-0.2462174892425537
1761585618719003400,10.64900341796875,-0.20137359201908112,-0.3935944437980652,-0.20879821479320526
1761585618728976400,10.658976318359375,-0.17084310948848724,-0.36206820607185364,-0.18593178689479828
1761585618738950400,10.668950439453125,-0.15423111617565155,-0.27366456389427185,-0.15990310907363892
1761585618748924400,10.67892431640625,-0.14815084636211395,-0.15281032025814056,-0.116763636469841
1761585618758898400,10.6888984375,-0.09703360497951508,-0.015458318404853344,-0.06389855593442917
1761585618768871400,10.698871337890624,-0.024581508710980415,0.04370860010385513,-0.005113801918923855
1761585618778845400,10.708845458984374,0.016415458172559738,0.056294430047273636,0.058403123170137405
1761585618788819500,10.7188193359375,0.01877688430249691,0.048712410032749176,0.12376321852207184
1761585618798792700,10.728792724609375,-0.006968693342059851,0.013624998740851879,0.18838056921958923
1761585618808766700,10.7387666015625,-0.04027445241808891,-0.052618470042943954,0.23057089745998383
1761585618818740500,10.748740478515625,-0.05288558453321457,-0.11218033730983734,0.2749447524547577
1761585618828714500,10.758714599609375,-0.015480422414839268,-0.14052729308605194,0.318629652261734
1761585618838687500,10.7686875,0.03503548353910446,-0.12915877997875214,0.3560025691986084
1761585618848661500,10.77866162109375,0.05327147617936134,-0.08903799951076508,0.36604270339012146
1761585618858635500,10.788635498046874,0.005316202063113451,-0.0771682858467102,0.3417424261569977
1761585618868609500,10.798609619140626,-0.09336882829666138,-0.12208223342895508,0.2898789644241333
1761585618878582500,10.80858251953125,-0.1787945181131363,-0.20219092071056366,0.22737589478492737
1761585618888556500,10.818556640625,-0.2029733508825302,-0.25901558995246887,0.18998831510543823
1761585618898530600,10.828530517578125,-0.1816219985485077,-0.25119999051094055,0.1836116462945938
1761585618908503600,10.838503662109375,-0.1272205412387848,-0.2150057852268219,0.19446562230587006
1761585618918477600,10.8484775390625,-0.0672573372721672,-0.15286438167095184,0.19728617370128632
1761585618928451600,10.85845166015625,-0.012767992913722992,-0.06512094289064407,0.19087541103363037
1761585618938425600,10.868425537109376,0.03979082033038139,0.03405517339706421,0.19890883564949036
1761585618948398600,10.878398681640626,0.08720094710588455,0.10576238483190536,0.22127646207809448
1761585618958372600,10.88837255859375,0.13679300248622894,0.16597752273082733,0.24789395928382874
1761585618968346600,10.8983466796875,0.19337931275367737,0.24620018899440765,0.2576432526111603
1761585618978319400,10.9083193359375,0.2389121800661087,0.31508496403694153,0.22591622173786163
1761585618988293400,10.91829345703125,0.26475974917411804,0.4729901850223541,0.14356088638305664
1761585618998267400,10.928267333984374,0.17906083166599274,0.5130675435066223,0.030584273859858513
1761585619008241400,10.938241455078124,0.05289330706000328,0.34347373247146606,-0.06571083515882492
1761585619018214400,10.94821435546875,-0.08378544449806213,0.1272841840982437,-0.11597693711519241
1761585619028188400,10.9581884765625,-0.18017296493053436,-0.04646656662225723,-0.11218991875648499
1761585619038162400,10.968162353515625,-0.2152702361345291,-0.14771009981632233,-0.06731139868497849
1761585619048136400,10.978136474609375,-0.19871363043785095,-0.18239723145961761,0.005072522908449173
1761585619058109400,10.988109375,-0.14372281730175018,-0.13225790858268738,0.06150703504681587
1761585619068083500,10.99808349609375,-0.08996877074241638,-0.05173376947641373,0.07546839118003845
1761585619078057500,11.008057373046874,-0.059178367257118225,0.0023763386998325586,0.04482792317867279
1761585619088030500,11.018030517578126,-0.053041115403175354,0.00649731419980526,0.009791111573576927
1761585619098004500,11.02800439453125,-0.05360943078994751,0.01125185564160347,0.004815527703613043
1761585619107978500,11.037978515625,-0.02245497517287731,0.01583489030599594,0.021813951432704926
1761585619117952500,11.047952392578125,0.03026283159852028,0.06928186863660812,0.03802061825990677
1761585619127925500,11.057925537109375,0.0870416909456253,0.15484550595283508,0.02875920943915844
1761585619137899500,11.0678994140625,0.13039103150367737,0.25899213552474976,0.001094825565814972
1761585619147873300,11.077873291015624,0.14510446786880493,0.35185497999191284,-0.027425765991210938
1761585619157847300,11.087847412109374,0.14942383766174316,0.38054919242858887,-0.062319301068782806
1761585619167820500,11.097820556640626,0.17503227293491364,0.41264909505844116,-0.08302005380392075
1761585619177794600,11.107794677734375,0.18510593473911285,0.42555609345436096,-0.107050821185112
1761585619187768600,11.1177685546875,0.1533927470445633,0.26367583870887756,-0.1948360651731491
1761585619197741600,11.127741455078125,0.06417978554964066,0.06322424113750458,-0.32331201434135437
1761585619207715600,11.137715576171875,-0.03600087761878967,-0.11912479251623154,-0.42351558804512024
1761585619217689600,11.147689697265625,-0.15031546354293823,-0.23907169699668884,-0.4625415503978729
1761585619227663600,11.15766357421875,-0.2335405796766281,-0.34440186619758606,-0.45173630118370056
1761585619237636600,11.16763671875,-0.25361761450767517,-0.3665385842323303,-0.4124237895011902
1761585619247610600,11.177610595703126,-0.22732903063297272,-0.3297307789325714,-0.36691728234291077
1761585619257584600,11.187584716796875,-0.1757103055715561,-0.27147039771080017,-0.3249804973602295
1761585619267558700,11.19755859375,-0.12102176249027252,-0.20618325471878052,-0.288822740316391
1761585619277531400,11.207531494140625,-0.08689361810684204,-0.16434447467327118,-0.2655203640460968
1761585619287505400,11.21750537109375,-0.08138860017061234,-0.1378508061170578,-0.2619117796421051
1761585619297479400,11.2274794921875,-0.0924585610628128,-0.1083400547504425,-0.2676261067390442
1761585619307452400,11.237452392578126,-0.09972233325242996,-0.10064804553985596,-0.2638052701950073
1761585619317426400,11.247426513671876,-0.08970671892166138,-0.09123403578996658,-0.2524069547653198
1761585619327400400,11.257400390625,-0.04797791317105293,-0.062677763402462,-0.23441091179847717
1761585619337374500,11.26737451171875,0.013737649656832218,-0.03369777649641037,-0.22768323123455048
1761585619347347500,11.277347412109375,0.04326464980840683,-0.011929896660149097,-0.21404464542865753
1761585619357321500,11.287321533203125,0.03677878528833389,0.009440906345844269,-0.2090349793434143
1761585619367295500,11.29729541015625,0.023186279460787773,0.04346358776092529,-0.1986055076122284
1761585619377268500,11.3072685546875,0.012812468223273754,0.08022399991750717,-0.18871212005615234
1761585619387242500,11.317242431640626,0.016187759116292,0.11624404788017273,-0.18079960346221924
1761585619397216500,11.327216552734376,0.021764950826764107,0.14931811392307281,-0.16918982565402985
1761585619407190500,11.3371904296875,0.023513048887252808,0.16577698290348053,-0.15115702152252197
1761585619417163500,11.34716357421875,0.040221456438302994,0.1634344607591629,-0.14600886404514313
1761585619427137500,11.357137451171875,0.04753902181982994,0.16507017612457275,-0.13188053667545319
1761585619437111300,11.367111328125,0.023618509992957115,0.14479100704193115,-0.13696131110191345
1761585619447085300,11.377085205078124,-0.014570953324437141,0.10935179144144058,-0.1411571204662323
1761585619457058300,11.387058349609376,-0.04430194944143295,0.019393404945731163,-0.1330544501543045
1761585619467032300,11.3970322265625,-0.06045881658792496,-0.09893590211868286,-0.10426115989685059
1761585619477006300,11.40700634765625,-0.06323330104351044,-0.15046806633472443,-0.06729781627655029
1761585619486979600,11.4169794921875,-0.0487518273293972,-0.12725196778774261,-0.03563283011317253
1761585619496953600,11.42695361328125,-0.018147312104701996,-0.04363882541656494,-0.005185707006603479
1761585619506927600,11.436927734375,-0.000618918624240905,0.007381217088550329,0.021572403609752655
1761585619516905700,11.44690576171875,0.0021904499735683203,0.002585396869108081,0.016711069270968437
1761585619526878700,11.456878662109375,0.011347463354468346,-0.05134627968072891,-0.003938548732548952
1761585619536852700,11.466852783203125,0.004405667539685965,-0.10211677849292755,-0.03931198641657829
1761585619546826800,11.47682666015625,-0.01841575838625431,-0.1352640837430954,-0.06450149416923523
1761585619556800000,11.486800048828124,-0.023310648277401924,-0.17799264192581177,-0.06980305165052414
1761585619566774000,11.49677392578125,0.004125502891838551,-0.25405463576316833,-0.0631675198674202
1761585619576747800,11.506747802734376,0.02581135742366314,-0.3126596510410309,-0.0746217742562294
1761585619586721800,11.5167216796875,0.02261556312441826,-0.3312564790248871,-0.09865733236074448
1761585619596695000,11.526695068359375,0.014735270291566849,-0.3091762363910675,-0.11546747386455536
1761585619606669000,11.5366689453125,0.031744346022605896,-0.26337066292762756,-0.1188688650727272
1761585619616643000,11.54664306640625,0.053112488240003586,-0.22860202193260193,-0.10350722074508667
1761585619626616800,11.556616943359375,0.06635771691799164,-0.21270614862442017,-0.06757025420665741
1761585619636589800,11.56658984375,0.08887767791748047,-0.14939002692699432,-0.010959174484014511
1761585619646563800,11.576563720703126,0.12409771233797073,-0.03456250578165054,0.061709169298410416
1761585619656537900,11.586537841796876,0.15863598883152008,0.09218452125787735,0.1475612223148346
1761585619666510800,11.5965107421875,0.16922657191753387,0.15942373871803284,0.2109529823064804
1761585619676484900,11.60648486328125,0.14399579167366028,0.18926793336868286,0.2265561819076538
1761585619686459000,11.616458984375,0.09488177299499512,0.2507917284965515,0.20352701842784882
1761585619696433000,11.626432861328125,0.08060909062623978,0.23997052013874054,0.18505586683750153
1761585619706406000,11.636406005859374,0.10182996094226837,0.23917795717716217,0.20079702138900757
1761585619716380000,11.6463798828125,0.14066337049007416,0.24138891696929932,0.24158892035484314
1761585619726354000,11.65635400390625,0.16104374825954437,0.20647194981575012,0.27455058693885803
1761585619736328000,11.666327880859376,0.13972780108451843,0.17133286595344543,0.2952364385128021
1761585619746301000,11.676301025390625,0.07712381333112717,0.151750385761261,0.32545000314712524
1761585619756275000,11.68627490234375,0.010249974206089973,0.19862814247608185,0.37165239453315735
1761585619766249000,11.6962490234375,-0.03760143741965294,0.3073655366897583,0.42729806900024414
1761585619776221700,11.7062216796875,-0.073316290974617,0.39166897535324097,0.5022098422050476
1761585619786195700,11.71619580078125,-0.09053070098161697,0.4198254942893982,0.5624561309814453
1761585619796169700,11.726169677734376,-0.08934852480888367,0.43101584911346436,0.5992144346237183
1761585619806143700,11.736143798828126,-0.10809610784053802,0.3881149888038635,0.602968692779541
1761585619816116700,11.74611669921875,-0.1322917342185974,0.24022352695465088,0.5519542694091797
1761585619826090800,11.7560908203125,-0.14870585501194,0.03916444629430771,0.46620285511016846
1761585619836064800,11.766064697265625,-0.1497868299484253,-0.09392356872558594,0.37665778398513794
1761585619846037800,11.776037841796875,-0.13721963763237,-0.10755069553852081,0.33959752321243286
1761585619856011800,11.78601171875,-0.14365915954113007,-0.024563932791352272,0.3674893379211426
1761585619865985800,11.79598583984375,-0.15250298380851746,0.05158356577157974,0.40317514538764954
1761585619875959800,11.805959716796876,-0.1480613648891449,0.09368441253900528,0.4061110317707062
1761585619885932800,11.815932861328125,-0.1579670011997223,0.09743440896272659,0.39008599519729614
1761585619895906800,11.82590673828125,-0.18743062019348145,0.06664427369832993,0.35404276847839355
1761585619905880800,11.835880859375,-0.20720244944095612,0.06684481352567673,0.272603839635849
1761585619915854800,11.845854736328125,-0.1939961016178131,0.042515236884355545,0.19291725754737854
1761585619925828000,11.855828125,-0.17612390220165253,0.0019534286111593246,0.18017882108688354
1761585619935801900,11.8658017578125,-0.17928773164749146,0.023551931604743004,0.2219180166721344
1761585619945775900,11.87577587890625,-0.17937801778316498,0.05714930593967438,0.25824353098869324
1761585619955748900,11.885748779296875,-0.14812368154525757,0.039670180529356,0.26816779375076294
1761585619965723000,11.895722900390625,-0.10666439682245255,0.03179095312952995,0.2719670832157135
1761585619975697000,11.90569677734375,-0.0653608962893486,0.0513225756585598,0.29391711950302124
1761585619985671000,11.9156708984375,-0.029167206957936287,0.031447138637304306,0.3294236958026886
1761585619995644000,11.925643798828125,-0.030788006260991096,-0.05711894482374191,0.3836645781993866
1761585620005618000,11.935617919921874,-0.0659095048904419,-0.17283302545547485,0.42097997665405273
1761585620015592000,11.945592041015624,-0.10076868534088135,-0.2859598398208618,0.4272988736629486
1761585620025565000,11.95556494140625,-0.14139094948768616,-0.39504745602607727,0.44268128275871277
1761585620035539000,11.9655390625,-0.1916743665933609,-0.4961059093475342,0.4881499707698822
1761585620045513000,11.975512939453125,-0.22291110455989838,-0.5377784967422485,0.5361462831497192
1761585620055487000,11.985487060546875,-0.22728800773620605,-0.5211222767829895,0.5498586297035217
1761585620065460000,11.9954599609375,-0.2160167247056961,-0.49387630820274353,0.4903721213340759
1761585620075434000,12.00543408203125,-0.1753116250038147,-0.3914918601512909,0.2811030447483063
1761585620085406000,12.015406005859376,-0.06659900397062302,-0.2379063069820404,-0.047145407646894455
1761585620095379000,12.02537890625,0.0954868420958519,-0.06629007309675217,-0.23779179155826569
1761585620105353000,12.03535302734375,0.24696850776672363,0.16219289600849152,-0.18608252704143524
1761585620115327000,12.045326904296875,0.3673931956291199,0.3443603217601776,-0.04320845752954483
1761585620125301000,12.055301025390625,0.4341338574886322,0.44266849756240845,0.010416155681014061
1761585620135274000,12.06527392578125,0.41384217143058777,0.4003239870071411,-0.09377229958772659
1761585620145248000,12.075248046875,0.3147406280040741,0.21822740137577057,-0.27355244755744934
1761585620155222000,12.085221923828126,0.15881894528865814,0.013489710167050362,-0.35831713676452637
1761585620165195000,12.095195068359375,0.03289669752120972,-0.09288493543863297,-0.34636619687080383
1761585620175168800,12.105168701171875,-0.012701946310698986,-0.11259951442480087,-0.3441523015499115
1761585620185142800,12.115142822265625,0.019207516685128212,-0.08045622706413269,-0.36374014616012573
1761585620195116800,12.12511669921875,0.06659606844186783,0.005558283533900976,-0.41382113099098206
1761585620205089800,12.13508984375,0.08173906803131104,0.09989011287689209,-0.4769686758518219
1761585620215063800,12.145063720703124,0.0787467435002327,0.15260711312294006,-0.511151134967804
1761585620225037800,12.155037841796876,0.06022019684314728,0.12558509409427643,-0.4988473653793335
1761585620235011800,12.16501171875,0.01167716272175312,0.028956551104784012,-0.4885829985141754
1761585620244984800,12.17498486328125,-0.042983684688806534,-0.11851812154054642,-0.5025603175163269
1761585620254958800,12.184958740234375,-0.08610212802886963,-0.24323982000350952,-0.5291059017181396
1761585620264932900,12.194932861328125,-0.12353924661874771,-0.3281174302101135,-0.5668253302574158
1761585620274905900,12.20490576171875,-0.1381554752588272,-0.4273500144481659,-0.6143819093704224
1761585620284880000,12.2148798828125,-0.1371472030878067,-0.5059294700622559,-0.6260026693344116
1761585620294854000,12.22485400390625,-0.1297350972890854,-0.5297754406929016,-0.6200238466262817
1761585620304828000,12.234827880859376,-0.13990411162376404,-0.5307464003562927,-0.7006046772003174
1761585620314801000,12.24480078125,-0.1656816452741623,-0.5983275771141052,-0.9061389565467834
1761585620324775000,12.25477490234375,-0.18081185221672058,-0.6481172442436218,-1.0697113275527954
1761585620334749000,12.2647490234375,-0.20601680874824524,-0.6698577404022217,-1.1020344495773315
1761585620344722000,12.274721923828125,-0.2036663144826889,-0.6671085357666016,-1.0704700946807861
1761585620354695700,12.28469580078125,-0.1403757482767105,-0.53691166639328,-0.9842603802680969
1761585620364669700,12.294669677734374,-0.09219570457935333,-0.42854708433151245,-0.8150053024291992
1761585620374643700,12.304643798828126,-0.1316262036561966,-0.3507116734981537,-0.5856067538261414
1761585620384617000,12.314616943359376,-0.20651349425315857,-0.20727276802062988,-0.2603599429130554
1761585620394591000,12.324591064453125,-0.2415955811738968,-0.049684733152389526,0.008214520290493965
1761585620404564700,12.334564697265625,-0.2130717933177948,0.0452127531170845,0.14948590099811554
1761585620414538800,12.344538818359375,-0.12768152356147766,0.06445089727640152,0.18202359974384308
1761585620424512000,12.354511962890625,0.009863017126917839,0.0825611874461174,0.16725477576255798
1761585620434486000,12.364486083984374,0.1356547623872757,0.1901499629020691,0.18962931632995605
