time,seconds_elapsed,z,y,x
1768578434419901200,0.146901123046875,0.578332781791687,-0.18979644775390625,-0.28934985399246216
1768578434429874000,0.1568740234375,0.6503002047538757,-0.2812665104866028,-0.2208704948425293
1768578434439848000,0.166847900390625,0.6807502508163452,-0.40233540534973145,-0.17216074466705322
1768578434449821000,0.176821044921875,0.6675106287002563,-0.5051463842391968,-0.1685028076171875
1768578434459795000,0.186794921875,0.6433291435241699,-0.5460770726203918,-0.2091578245162964
1768578434469768000,0.196767822265625,0.6206024885177612,-0.5116130709648132,-0.27852603793144226
1768578434479741200,0.2067412109375,0.5920355916023254,-0.4267018437385559,-0.374450147151947
1768578434489715200,0.216715087890625,0.3621492087841034,-0.1312832236289978,-0.4100763499736786
1768578434499688000,0.22668798828125,-0.026059530675411224,0.11944727599620819,-0.36393120884895325
1768578434509661000,0.236660888671875,-0.13142797350883484,0.08194346725940704,-0.2608655095100403
1768578434519635000,0.246635009765625,0.0404665507376194,-0.13757291436195374,-0.19442816078662872
1768578434529608000,0.25660791015625,0.20431877672672272,-0.15415602922439575,-0.12625329196453094
1768578434539581200,0.266581298828125,0.27961060404777527,-0.14336302876472473,-0.09443411231040955
1768578434549555000,0.276554931640625,0.29688501358032227,-0.10564453154802322,-0.11215232312679291
1768578434559528200,0.286528076171875,0.3372188210487366,-0.061475470662117004,-0.1387796700000763
1768578434569502200,0.296502197265625,0.4235464930534363,-0.023562917485833168,-0.15092997252941132
1768578434579475000,0.306474853515625,0.5130712985992432,-0.022034795954823494,-0.15898524224758148
1768578434589448000,0.316447998046875,0.5471316576004028,-0.07613355666399002,-0.14182138442993164
1768578434599422000,0.326421875,0.5134144425392151,-0.06375012546777725,-0.11694665253162384
1768578434609395000,0.33639501953125,0.4646364152431488,0.008078141137957573,-0.10103967040777206
1768578434619368200,0.3463681640625,0.43471020460128784,0.0467538982629776,-0.06479138135910034
1768578434629342000,0.356342041015625,0.4010434150695801,0.018687160685658455,-0.006912398152053356
1768578434639315200,0.366315185546875,0.34014278650283813,-0.004792065359652042,0.050348494201898575
1768578434649288000,0.376287841796875,0.2607194185256958,-0.04483376443386078,0.05222403258085251
1768578434659262000,0.386261962890625,0.20259511470794678,-0.1467026025056839,-0.01282208040356636
1768578434669235000,0.39623486328125,0.18452684581279755,-0.27463284134864807,-0.1354398876428604
1768578434679209000,0.406208984375,0.21869893372058868,-0.3492482006549835,-0.29566073417663574
1768578434689182000,0.416181884765625,0.29927992820739746,-0.37013906240463257,-0.49539676308631897
1768578434699155200,0.4261552734375,0.35471948981285095,-0.36622127890586853,-0.6670257449150085
1768578434709129200,0.436129150390625,0.3708122968673706,-0.37555623054504395,-0.7197230458259583
1768578434719102200,0.446102294921875,0.37970247864723206,-0.3843606412410736,-0.6803841590881348
1768578434729075000,0.456074951171875,0.37869736552238464,-0.33191755414009094,-0.5881924033164978
1768578434739049000,0.466049072265625,0.3709276020526886,-0.2298516482114792,-0.4671144485473633
1768578434749022000,0.47602197265625,0.35366150736808777,-0.12387079000473022,-0.3168596029281616
1768578434758995000,0.485994873046875,0.32911038398742676,-0.04519381746649742,-0.12958292663097382
1768578434768969000,0.495968994140625,0.30925679206848145,-0.06772439926862717,0.03844162076711655
1768578434778942200,0.505942138671875,0.2886636257171631,-0.19860093295574188,0.10475699603557587
1768578434788916200,0.515916259765625,0.2713923156261444,-0.3191492557525635,0.05988835543394089
1768578434798889000,0.525888916015625,0.24288475513458252,-0.37880194187164307,-0.03127564117312431
1768578434808862000,0.535862060546875,0.2281506359577179,-0.3684794306755066,-0.11788701266050339
1768578434818836000,0.5458359375,0.24544307589530945,-0.33646345138549805,-0.22545795142650604
1768578434828809000,0.55580908203125,0.2757313847541809,-0.3311266601085663,-0.33384013175964355
1768578434838782000,0.565781982421875,0.2968904674053192,-0.31754451990127563,-0.4128153622150421
1768578434848756000,0.575755859375,0.30122750997543335,-0.23849283158779144,-0.4459773302078247
1768578434858729200,0.585729248046875,0.31114646792411804,-0.14659300446510315,-0.4269234836101532
1768578434868703200,0.595703125,0.2873629033565521,-0.18784110248088837,-0.319719523191452
1768578434878676000,0.605676025390625,0.2300594002008438,-0.16409315168857574,-0.13683730363845825
1768578434888649000,0.61564892578125,0.21687424182891846,-0.1794234663248062,0.0776737853884697
1768578434898622000,0.6256220703125,0.23080870509147644,-0.28417226672172546,0.26540347933769226
1768578434908595000,0.635594970703125,0.22954431176185608,-0.34340134263038635,0.37008029222488403
1768578434918568000,0.64556787109375,0.22710806131362915,-0.3923518657684326,0.3458032011985779
1768578434928542000,0.6555419921875,0.22516675293445587,-0.39503031969070435,0.2198161780834198
1768578434938515000,0.665514892578125,0.21886013448238373,-0.3359752595424652,0.03547615557909012
1768578434948488000,0.675488037109375,0.21198385953903198,-0.23751254379749298,-0.15619634091854095
1768578434958462000,0.6854619140625,0.20867779850959778,-0.1579119861125946,-0.28824254870414734
1768578434968435000,0.69543505859375,0.21456049382686615,-0.09761777520179749,-0.3450218141078949
1768578434978409000,0.705408935546875,0.20977133512496948,-0.06635040044784546,-0.32877519726753235
1768578434988382000,0.7153818359375,0.1966497004032135,-0.08834834396839142,-0.2811007797718048
1768578434998355000,0.72535498046875,0.17206498980522156,-0.13129368424415588,-0.2191077023744583
1768578435008329000,0.735328857421875,0.13877514004707336,-0.15467388927936554,-0.15323783457279205
1768578435018302000,0.745302001953125,0.12226594239473343,-0.20403903722763062,-0.15118959546089172
1768578435028276000,0.75527587890625,0.13982349634170532,-0.23656287789344788,-0.23518304526805878
1768578435038249000,0.7652490234375,0.15221358835697174,-0.23943430185317993,-0.3841778635978699
1768578435048222000,0.775221923828125,0.1705850064754486,-0.28154876828193665,-0.5718337893486023
1768578435058195700,0.78519580078125,0.185145303606987,-0.29834210872650146,-0.7417285442352295
1768578435068169000,0.7951689453125,0.19492079317569733,-0.2589137852191925,-0.8106245994567871
1768578435078142000,0.805141845703125,0.1741984784603119,-0.16555695235729218,-0.734198808670044
1768578435088116000,0.815115966796875,0.14116254448890686,-0.023967666551470757,-0.5548180937767029
1768578435098089000,0.8250888671875,0.12362564355134964,0.08216569572687149,-0.3589399456977844
1768578435108063000,0.83506298828125,0.1150798574090004,0.1029367744922638,-0.20943234860897064
1768578435118036000,0.845035888671875,0.09981914609670639,0.06922861933708191,-0.11790590733289719
1768578435128009000,0.855009033203125,0.09363913536071777,0.07406139373779297,-0.024508794769644737
1768578435137982700,0.864982666015625,0.09107424318790436,0.1354461908340454,0.0725780725479126
1768578435147956000,0.8749560546875,0.10462170094251633,0.15741130709648132,0.12331225723028183
1768578435157929000,0.884928955078125,0.1350749433040619,0.1186700314283371,0.07624408602714539
1768578435167903000,0.894903076171875,0.14637403190135956,0.05676453560590744,-0.05060611292719841
1768578435177876000,0.9048759765625,0.14557720720767975,0.006036377977579832,-0.1840216964483261
1768578435187850000,0.91485009765625,0.13698886334896088,-0.020530955865979195,-0.26592645049095154
1768578435197823000,0.924822998046875,0.1346852332353592,-0.0013788333162665367,-0.2713931202888489
1768578435207796000,0.9347958984375,0.13578200340270996,0.04124963656067848,-0.21788813173770905
1768578435217770000,0.94477001953125,0.14361914992332458,0.08202822506427765,-0.11311004310846329
1768578435227743000,0.954742919921875,0.16338901221752167,0.11446274816989899,-0.005875280126929283
1768578435237717000,0.964717041015625,0.1857968419790268,0.08926844596862793,0.01952381804585457
1768578435247690000,0.97468994140625,0.19024740159511566,0.03416192904114723,-0.05050913617014885
1768578435257663000,0.9846630859375,0.18662656843662262,-0.025290481746196747,-0.15485471487045288
1768578435267637000,0.994636962890625,0.1789809912443161,-0.0621069073677063,-0.22945931553840637
1768578435277609700,1.004609619140625,0.17014728486537933,-0.05610201135277748,-0.2455088496208191
1768578435287583000,1.0145830078125,0.15880830585956573,-0.04223131015896797,-0.21292775869369507
1768578435297557000,1.024556884765625,0.16428828239440918,-0.026380710303783417,-0.18039938807487488
1768578435307530000,1.034530029296875,0.17645248770713806,-0.002797280205413699,-0.17325495183467865
1768578435317504000,1.04450390625,0.18879729509353638,0.0011045169085264206,-0.19740742444992065
1768578435327477000,1.05447705078125,0.21044079959392548,-0.0037923615891486406,-0.20577313005924225
1768578435337450000,1.064449951171875,0.25205695629119873,0.011636663228273392,-0.16519801318645477
1768578435347424000,1.074424072265625,0.27366316318511963,0.058181118220090866,-0.1219792515039444
1768578435357396700,1.084396728515625,0.28927621245384216,0.09148181974887848,-0.09632555395364761
1768578435367370800,1.094370849609375,0.2950432002544403,0.07165206968784332,-0.08705782145261765
1768578435377344000,1.104343994140625,0.27669110894203186,0.028646277263760567,-0.08878781646490097
1768578435387317000,1.11431689453125,0.256044864654541,0.01543809287250042,-0.09451551735401154
1768578435397291000,1.124291015625,0.25443312525749207,0.015570983290672302,-0.13039229810237885
1768578435407264000,1.134263916015625,0.23915818333625793,-0.02993270568549633,-0.21773287653923035
1768578435417237000,1.144237060546875,0.20482072234153748,-0.09776928275823593,-0.3365250527858734
1768578435427211000,1.1542109375,0.178420290350914,-0.13952535390853882,-0.44601911306381226
1768578435437183700,1.164183837890625,0.16502831876277924,-0.13843558728694916,-0.486688494682312
1768578435447157800,1.17415771484375,0.1514120250940323,-0.1130867674946785,-0.46171993017196655
1768578435457131000,1.184131103515625,0.1550714671611786,-0.08025185018777847,-0.3736070990562439
1768578435467104000,1.19410400390625,0.17798751592636108,-0.02940375730395317,-0.27115321159362793
1768578435477078000,1.204078125,0.19770023226737976,0.031125633046030998,-0.1849256455898285
1768578435487051000,1.214051025390625,0.22215229272842407,0.06345171481370926,-0.12727905809879303
1768578435497024000,1.22402392578125,0.24652235209941864,0.07207342982292175,-0.1133672297000885
1768578435506997800,1.233997802734375,0.25505271553993225,0.06988541781902313,-0.1411067247390747
1768578435516970800,1.243970703125,0.262100487947464,0.028499096632003784,-0.21747100353240967
1768578435526944800,1.25394482421875,0.2535204291343689,0.009399348869919777,-0.29574674367904663
1768578435536918000,1.26391796875,0.23852069675922394,0.0007486031390726566,-0.34999799728393555
1768578435546891000,1.27389111328125,0.22994643449783325,-0.02445659227669239,-0.39549559354782104
1768578435556865000,1.283864990234375,0.20869307219982147,-0.02873895689845085,-0.41417181491851807
1768578435566838000,1.293838134765625,0.19029195606708527,0.007346652913838625,-0.3936620056629181
1768578435576812000,1.30381201171875,0.18231871724128723,0.044873788952827454,-0.35192227363586426
1768578435586784800,1.31378466796875,0.18939310312271118,0.0802927017211914,-0.2813204228878021
1768578435596758000,1.323758056640625,0.20796865224838257,0.11875966191291809,-0.17189936339855194
1768578435606731800,1.333731689453125,0.2130855768918991,0.13884995877742767,-0.03511404991149902
1768578435616705000,1.343705078125,0.22033150494098663,0.1310114860534668,0.07656694203615189
1768578435626679000,1.353678955078125,0.2248086780309677,0.11152537912130356,0.12507320940494537
1768578435636652000,1.363652099609375,0.2241697907447815,0.08856573700904846,0.11333481222391129
1768578435646625000,1.373625,0.22558200359344482,0.028879571706056595,0.0482574999332428
1768578435656599000,1.38359912109375,0.22060082852840424,-0.0067319502122700214,-0.03599479794502258
1768578435666571800,1.39357177734375,0.2132834494113922,-0.005881165619939566,-0.10219002515077591
1768578435676545000,1.403544921875,0.21471142768859863,0.01591654121875763,-0.1498638093471527
1768578435686518800,1.413518798828125,0.22073045372962952,0.024238698184490204,-0.20336031913757324
1768578435696492000,1.423491943359375,0.21646539866924286,-0.012237820774316788,-0.2852804958820343
1768578435706466000,1.433466064453125,0.1949245184659958,-0.050515316426754,-0.3700735867023468
1768578435716439000,1.44343896484375,0.16334661841392517,-0.048332054167985916,-0.41979798674583435
1768578435726412000,1.453412109375,0.13530224561691284,-0.003938509617000818,-0.4248954653739929
1768578435736386000,1.463385986328125,0.1374966949224472,0.03143812343478203,-0.39175933599472046
1768578435746358800,1.47335888671875,0.15618792176246643,0.04179887846112251,-0.34613311290740967
1768578435756332800,1.483332763671875,0.1744244545698166,0.05243448168039322,-0.32762521505355835
1768578435766306000,1.49330615234375,0.19218461215496063,0.07838228344917297,-0.3404819369316101
1768578435776279000,1.503279052734375,0.21536023914813995,0.1324220895767212,-0.3676041066646576
1768578435786253000,1.513253173828125,0.2365237921476364,0.18873679637908936,-0.40073543787002563
1768578435796226000,1.52322607421875,0.24611090123653412,0.23543399572372437,-0.44252684712409973
1768578435806198800,1.53319873046875,0.2446604073047638,0.26790300011634827,-0.48285800218582153
1768578435816172800,1.5431728515625,0.23961877822875977,0.307143896818161,-0.5244662165641785
1768578435826145800,1.553145751953125,0.22135229408740997,0.3309940695762634,-0.5538813471794128
1768578435836119800,1.563119873046875,0.18751417100429535,0.33540692925453186,-0.5786988139152527
1768578435846093000,1.573093017578125,0.16514140367507935,0.3334798812866211,-0.592477023601532
1768578435856066000,1.583066162109375,0.1398022174835205,0.35048070549964905,-0.5914799571037292
1768578435866040000,1.5930400390625,0.10310541093349457,0.3746882975101471,-0.5732345581054688
1768578435876013000,1.603012939453125,0.09403175860643387,0.4052576720714569,-0.5439136624336243
1768578435885987000,1.612987060546875,0.11101577430963516,0.40327611565589905,-0.5252211093902588
1768578435895961000,1.622961181640625,0.1215168833732605,0.397310346364975,-0.5165703892707825
1768578435905934000,1.63293408203125,0.13435527682304382,0.4117358326911926,-0.5374752283096313
1768578435915908000,1.642908203125,0.13885308802127838,0.40820610523223877,-0.5783922672271729
1768578435925880800,1.652880859375,0.12325388193130493,0.39889606833457947,-0.6423022150993347
1768578435935854000,1.66285400390625,0.09992991387844086,0.3924962282180786,-0.678813636302948
1768578435945827800,1.672827880859375,0.08954811096191406,0.3806832432746887,-0.6633257269859314
1768578435955801000,1.682801025390625,0.07798280566930771,0.40489882230758667,-0.6284042596817017
1768578435965775000,1.692775146484375,0.06911584734916687,0.4332141578197479,-0.6072354316711426
1768578435975748000,1.702748046875,0.06456290930509567,0.4334607422351837,-0.6147066950798035
1768578435985721000,1.71272119140625,0.05321972444653511,0.4161543846130371,-0.6308212876319885
1768578435995695000,1.722695068359375,0.046390049159526825,0.4191341996192932,-0.6326665878295898
1768578436005667800,1.732667724609375,0.051365938037633896,0.4433993399143219,-0.6252865791320801
1768578436015641900,1.742641845703125,0.05778175964951515,0.4846932590007782,-0.6064372658729553
1768578436025615000,1.752614990234375,0.06520558893680573,0.5110598206520081,-0.5907052159309387
1768578436035588000,1.762588134765625,0.05053289979696274,0.49948811531066895,-0.5748966932296753
1768578436045562000,1.77256201171875,0.02466810867190361,0.44475457072257996,-0.5683872699737549
1768578436055535000,1.78253515625,0.01088651642203331,0.36925581097602844,-0.5771088004112244
1768578436065508000,1.792508056640625,0.004874031525105238,0.27558740973472595,-0.6084256768226624
1768578436075482000,1.802482177734375,0.0039600348100066185,0.1956654191017151,-0.6479361057281494
1768578436085454800,1.812454833984375,0.014742336235940456,0.12180735915899277,-0.691132128238678
1768578436095428900,1.822428955078125,0.0208100825548172,0.0637483149766922,-0.7205814123153687
1768578436105402000,1.832402099609375,0.01894240826368332,0.03458883613348007,-0.7326819896697998
1768578436115375000,1.842375,0.00823969580233097,0.03203006833791733,-0.7255279421806335
1768578436125349000,1.85234912109375,0.004486199002712965,0.06302578002214432,-0.7053055763244629
1768578436135322000,1.862322021484375,0.02030404470860958,0.13005700707435608,-0.6802172660827637
1768578436145296100,1.872296142578125,0.028923628851771355,0.18185357749462128,-0.6812623143196106
1768578436155268900,1.882268798828125,0.007291304878890514,0.16928692162036896,-0.7075712084770203
1768578436165241900,1.892241943359375,-0.017894987016916275,0.09585415571928024,-0.7781412601470947
1768578436175215900,1.9022158203125,-0.04781800135970116,-0.019802136346697807,-0.9033857583999634
1768578436185189000,1.912189208984375,-0.08830931037664413,-0.09481300413608551,-1.0405806303024292
1768578436195163100,1.9221630859375,-0.10584782063961029,-0.1376427710056305,-1.1427544355392456
1768578436205136100,1.93213623046875,-0.0998094454407692,-0.1795322448015213,-1.1951384544372559
1768578436215109000,1.942109130859375,-0.10338127613067627,-0.1540074348449707,-1.1784154176712036
1768578436225083100,1.952083251953125,-0.1292734444141388,-0.13700678944587708,-1.107055902481079
1768578436235055900,1.962055908203125,-0.1449357569217682,-0.13885821402072906,-1.0086499452590942
1768578436245028900,1.97202880859375,-0.14706987142562866,-0.13928253948688507,-0.9116762280464172
1768578436255003000,1.9820029296875,-0.14316433668136597,-0.14244717359542847,-0.8045660257339478
1768578436264976100,1.99197607421875,-0.12225078791379929,-0.14640210568904877,-0.7203651666641235
1768578436274950100,2.0019501953125,-0.10456260293722153,-0.15504060685634613,-0.6725481152534485
1768578436284923100,2.011923095703125,-0.09417545050382614,-0.15474557876586914,-0.6273820996284485
1768578436294896000,2.021896240234375,-0.06931670755147934,-0.12982745468616486,-0.5538868308067322
1768578436304870100,2.0318701171875,-0.03290560841560364,-0.12622667849063873,-0.4692452847957611
1768578436314843000,2.0418427734375,-0.005635373294353485,-0.13058972358703613,-0.4062788486480713
1768578436324817000,2.05181689453125,0.013678403571248055,-0.1142594963312149,-0.36302778124809265
1768578436334790000,2.061789794921875,0.02784375660121441,-0.11080671101808548,-0.3362632691860199
1768578436344763100,2.07176318359375,0.034013692289590836,-0.13125939667224884,-0.3423041105270386
1768578436354737200,2.081737060546875,0.03115931525826454,-0.14635419845581055,-0.3739464581012726
1768578436364710100,2.091710205078125,0.010254756547510624,-0.14060288667678833,-0.398842453956604
1768578436374684200,2.10168408203125,-0.018410444259643555,-0.12758028507232666,-0.42394301295280457
1768578436384657000,2.111656982421875,-0.05657348036766052,-0.12368766218423843,-0.4370313584804535
1768578436394630000,2.1216298828125,-0.09192588180303574,-0.10239515453577042,-0.4348262548446655
1768578436404604000,2.13160400390625,-0.11061359196901321,-0.07751104235649109,-0.42011451721191406
1768578436414577000,2.141576904296875,-0.12076875567436218,-0.05357189476490021,-0.4107210040092468
1768578436424551000,2.151551025390625,-0.12425357103347778,-0.08201983571052551,-0.41874533891677856
1768578436434524200,2.161524169921875,-0.12198349833488464,-0.12068493664264679,-0.42809197306632996
1768578436444497200,2.1714970703125,-0.11292587220668793,-0.14399927854537964,-0.44841060042381287
1768578436454471200,2.18147119140625,-0.11005924642086029,-0.16665558516979218,-0.4746038317680359
1768578436464444000,2.19144384765625,-0.10631698369979858,-0.1663258820772171,-0.4674476683139801
1768578436474417000,2.2014169921875,-0.07462829351425171,-0.15877795219421387,-0.4357254207134247
1768578436484391000,2.211390869140625,-0.040665071457624435,-0.17162750661373138,-0.4169546067714691
1768578436494364000,2.221364013671875,-0.02842571772634983,-0.1796281784772873,-0.4096194803714752
1768578436504338000,2.231337890625,-0.02525039203464985,-0.1859949678182602,-0.4108172655105591
1768578436514311200,2.241311279296875,-0.03867778554558754,-0.21589161455631256,-0.40985533595085144
1768578436524284200,2.2512841796875,-0.05582861602306366,-0.256195992231369,-0.4095924496650696
1768578436534258200,2.261258056640625,-0.06428682059049606,-0.30181220173835754,-0.37491995096206665
1768578436544231000,2.27123095703125,-0.05133725330233574,-0.3911502957344055,-0.3585386276245117
1768578436554205000,2.281204833984375,-0.04190567135810852,-0.5134850144386292,-0.39818137884140015
1768578436564178000,2.291177978515625,-0.0546683706343174,-0.6263405084609985,-0.43061161041259766
1768578436574151000,2.30115087890625,-0.062187276780605316,-0.6542288661003113,-0.4733864963054657
1768578436584125000,2.311125,-0.09695406258106232,-0.5524570941925049,-0.499126672744751
1768578436594098200,2.32109814453125,-0.115486741065979,-0.4507659077644348,-0.4797934591770172
1768578436604072200,2.331072265625,-0.09703288972377777,-0.42046019434928894,-0.44579100608825684
1768578436614045200,2.341045166015625,-0.07665552198886871,-0.4157693386077881,-0.4432463049888611
1768578436624018000,2.351017822265625,-0.07418563216924667,-0.38107624650001526,-0.4789614677429199
1768578436633992000,2.360991943359375,-0.07812737673521042,-0.3415778577327728,-0.5451833605766296
1768578436643965000,2.37096484375,-0.07478707283735275,-0.2942824959754944,-0.6090189814567566
1768578436653938200,2.380938232421875,-0.076487235724926,-0.2577577829360962,-0.6260640025138855
1768578436663912000,2.390911865234375,-0.0791487991809845,-0.22284667193889618,-0.5974643230438232
1768578436673885200,2.40088525390625,-0.06546015292406082,-0.16212819516658783,-0.5536113977432251
1768578436683859200,2.410859130859375,-0.04858333244919777,-0.09798622876405716,-0.5098986029624939
1768578436693832000,2.42083203125,-0.02718350477516651,-0.08829152584075928,-0.48769983649253845
1768578436703805000,2.430804931640625,0.012130041606724262,-0.07164572179317474,-0.5038168430328369
1768578436713779000,2.440779052734375,0.049596190452575684,-0.03083304688334465,-0.5276598930358887
1768578436723752000,2.450751953125,0.060669347643852234,0.007593926042318344,-0.5300858020782471
1768578436733726000,2.460725830078125,0.057294853031635284,0.02808428555727005,-0.5247421264648438
1768578436743699200,2.47069921875,0.04183383285999298,0.03175489604473114,-0.5106514692306519
1768578436753672200,2.480672119140625,0.03088558092713356,0.020965898409485817,-0.5060257911682129
1768578436763646200,2.490646240234375,0.013758906163275242,0.02365705370903015,-0.5047248005867004
1768578436773619000,2.500618896484375,-0.005052331369370222,0.04621695354580879,-0.49222663044929504
1768578436783593000,2.510593017578125,-0.002723169047385454,0.06376538425683975,-0.45389607548713684
1768578436793566000,2.52056591796875,0.009247207082808018,0.06834042817354202,-0.40321293473243713
1768578436803539000,2.5305390625,0.017802421003580093,0.10778269171714783,-0.3193207383155823
1768578436813513000,2.540512939453125,0.05736953765153885,0.12607461214065552,-0.2308097779750824
1768578436823486200,2.550486328125,0.10456908494234085,0.12695804238319397,-0.21978139877319336
1768578436833460000,2.5604599609375,0.14094893634319305,0.12264557927846909,-0.27609288692474365
1768578436843433200,2.57043310546875,0.1532386690378189,0.13251230120658875,-0.3410419821739197
1768578436853406000,2.580406005859375,0.139200359582901,0.14917384088039398,-0.38520410656929016
1768578436863380000,2.5903798828125,0.11260844767093658,0.1582852154970169,-0.3837282657623291
1768578436873353000,2.60035302734375,0.07127697765827179,0.16852852702140808,-0.34117069840431213
1768578436883327000,2.610326904296875,0.027466310188174248,0.1998026818037033,-0.2657656669616699
1768578436893300000,2.620300048828125,-0.01133781112730503,0.2072262465953827,-0.19358815252780914
1768578436903273500,2.6302734375,-0.03340320289134979,0.1887577325105667,-0.1333475559949875
1768578436913247200,2.640247314453125,-0.04904208332300186,0.17010149359703064,-0.09348243474960327
1768578436923220500,2.650220458984375,-0.055527184158563614,0.15488523244857788,-0.053736988455057144
1768578436933194500,2.660194580078125,-0.06346047669649124,0.1050441712141037,0.014907586388289928
1768578436943167500,2.67016748046875,-0.06617045402526855,0.07200811803340912,0.11779565364122391
1768578436953140500,2.680140380859375,-0.061841487884521484,0.048750996589660645,0.20130465924739838
1768578436963114500,2.690114501953125,-0.041670817881822586,0.02178339660167694,0.26628780364990234
1768578436973087200,2.700087158203125,-0.00853603146970272,0.019805733114480972,0.2796552777290344
1768578436983060500,2.710060546875,0.014337059110403061,0.03435782343149185,0.23225559294223785
1768578436993034200,2.7200341796875,0.03244735300540924,0.054120078682899475,0.1632070094347
1768578437003007500,2.730007568359375,0.029103564098477364,0.08619391173124313,0.10337930172681808
1768578437012981500,2.7399814453125,0.014952592551708221,0.12890274822711945,0.09367154538631439
1768578437022954500,2.74995458984375,0.006154173985123634,0.15418922901153564,0.10039390623569489
1768578437032928500,2.759928466796875,-0.00837470218539238,0.15711790323257446,0.10368450731039047
1768578437042901500,2.769901611328125,-0.028636828064918518,0.1384243369102478,0.1222754716873169
1768578437052874200,2.779874267578125,-0.04424721375107765,0.11752597242593765,0.14930123090744019
1768578437062848300,2.78984814453125,-0.053019821643829346,0.11655457317829132,0.17344073951244354
1768578437072821500,2.799821533203125,-0.05877944082021713,0.09874600917100906,0.21421746909618378
1768578437082794500,2.80979443359375,-0.05800759792327881,0.06716164946556091,0.2544107437133789
1768578437092768500,2.8197685546875,-0.04418792203068733,0.04309333115816116,0.27403318881988525
1768578437102741500,2.829741455078125,-0.03862229734659195,0.014357971027493477,0.25771191716194153
1768578437112715500,2.839715576171875,-0.03704916685819626,-0.017532050609588623,0.25201061367988586
1768578437122688300,2.849688232421875,-0.03241589292883873,-0.010111638344824314,0.25581586360931396
1768578437132661200,2.8596611328125,-0.02892795205116272,-0.017304303124547005,0.2565181255340576
1768578437142635300,2.86963525390625,-0.008232241496443748,-0.011729873716831207,0.2778734266757965
1768578437152608500,2.8796083984375,0.018094703555107117,-0.0034013695549219847,0.29159507155418396
1768578437162582300,2.889582275390625,0.009420597925782204,-0.027043530717492104,0.29374048113822937
1768578437172555500,2.899555419921875,-0.017967883497476578,-0.03633689880371094,0.31279513239860535
1768578437182529500,2.909529541015625,-0.03080661967396736,-0.028684666380286217,0.34385859966278076
1768578437192502500,2.91950244140625,-0.053099676966667175,-0.05554770305752754,0.38223129510879517
1768578437202475300,2.929475341796875,-0.059806548058986664,-0.08638965338468552,0.4227408170700073
1768578437212449300,2.93944921875,-0.050899602472782135,-0.07201630622148514,0.4522515833377838
1768578437222422300,2.94942236328125,-0.04863232001662254,-0.06777551770210266,0.4770607650279999
1768578437232396300,2.959396240234375,-0.049056027084589005,-0.059418514370918274,0.5035357475280762
1768578437242369500,2.96936962890625,-0.04061673581600189,-0.04924071580171585,0.5290866494178772
1768578437252342500,2.979342529296875,-0.03207597881555557,-0.046125344932079315,0.5475834012031555
1768578437262316500,2.989316650390625,-0.024664591997861862,-0.05349772423505783,0.5837211012840271
1768578437272289500,2.99928955078125,-0.021234173327684402,-0.07920282334089279,0.6155354976654053
1768578437282263600,3.009263671875,-0.02520962804555893,-0.08857223391532898,0.6535021066665649
1768578437292236300,3.019236328125,-0.003944818861782551,-0.08008340746164322,0.7326582074165344
1768578437302209300,3.029209228515625,0.025500573217868805,-0.06379452347755432,0.8066714406013489
1768578437312183300,3.039183349609375,0.042104583233594894,-0.038908351212739944,0.8150819540023804
1768578437322156500,3.049156494140625,0.035956352949142456,-0.043188244104385376,0.8090051412582397
1768578437332130600,3.059130615234375,0.01306195743381977,-0.032421085983514786,0.7821985483169556
1768578437342103600,3.069103515625,-0.020121866837143898,-0.027709977701306343,0.7376903295516968
1768578437352076300,3.079076171875,-0.03868436440825462,-0.005479506682604551,0.7105058431625366
1768578437362050300,3.08905029296875,-0.03334031254053116,0.013003021478652954,0.7049765586853027
1768578437372023300,3.099023193359375,-0.03237598389387131,0.05498749017715454,0.6960131525993347
1768578437381997300,3.108997314453125,-0.05187247321009636,0.09303425997495651,0.6304144859313965
1768578437391970300,3.11897021484375,-0.09522074460983276,0.11183484643697739,0.5777352452278137
1768578437401943600,3.128943603515625,-0.12096889317035675,0.12777861952781677,0.5949631333351135
1768578437411917600,3.13891748046875,-0.13310198485851288,0.14452776312828064,0.6518682241439819
1768578437421890600,3.148890625,-0.14394065737724304,0.16955266892910004,0.7042302489280701
1768578437431864600,3.158864501953125,-0.11911733448505402,0.19464977085590363,0.7113509774208069
1768578437441837300,3.16883740234375,-0.06750600785017014,0.18719656765460968,0.7001468539237976
1768578437451810300,3.178810302734375,-0.023408854380249977,0.15083244442939758,0.6497451663017273
1768578437461784300,3.188784423828125,0.014948425814509392,0.1073620393872261,0.6055294275283813
1768578437471757300,3.19875732421875,0.04973756521940231,0.0906379222869873,0.5920119881629944
1768578437481731300,3.2087314453125,0.06364213675260544,0.07069966197013855,0.592360258102417
1768578437491704600,3.21870458984375,0.056527771055698395,0.05641606077551842,0.5785076022148132
1768578437501677600,3.228677490234375,0.04999309405684471,0.0528673492372036,0.5545000433921814
1768578437511651600,3.238651611328125,0.03913911432027817,0.019280361011624336,0.5051900148391724
1768578437521624300,3.248624267578125,0.02707783132791519,-0.021503504365682602,0.44143563508987427
1768578437531598300,3.258598388671875,0.010114294476807117,0.023247987031936646,0.41341039538383484
1768578437541571300,3.2685712890625,-0.0021770508028566837,0.07045498490333557,0.43415987491607666
1768578437551544300,3.27854443359375,0.0030904156155884266,0.06004176288843155,0.4698733687400818
1768578437561518300,3.288518310546875,-0.0053169927559792995,0.04823405295610428,0.5298036336898804
1768578437571491600,3.29849169921875,-0.011407909914851189,-0.0012229797430336475,0.6065066456794739
1768578437581465600,3.308465576171875,-0.006973441690206528,-0.07122232019901276,0.6730636358261108
1768578437591438300,3.318438232421875,-0.006711119785904884,-0.10526204854249954,0.6955644488334656
1768578437601411300,3.328411376953125,-0.015330953523516655,-0.10890667885541916,0.7028622031211853
1768578437611385300,3.33838525390625,-0.012998823076486588,-0.10130548477172852,0.7198691964149475
1768578437621358300,3.3483583984375,0.004205633886158466,-0.0735689327120781,0.726618766784668
1768578437631332400,3.358332275390625,0.007254686672240496,-0.05862113833427429,0.7213593125343323
1768578437641305300,3.368305419921875,0.00925338827073574,-0.022052697837352753,0.7184091210365295
1768578437651278600,3.378278564453125,0.004981412086635828,0.005170934367924929,0.7147331237792969
1768578437661252600,3.388252685546875,0.012862030416727066,0.0035926722921431065,0.7037433981895447
1768578437671225300,3.398225341796875,0.020971354097127914,0.0038882833905518055,0.6797956824302673
1768578437681199400,3.408199462890625,0.017998449504375458,-0.018980449065566063,0.6474812030792236
1768578437691172400,3.41817236328125,0.02835255302488804,-0.02268543839454651,0.6349183320999146
1768578437701145300,3.428145263671875,0.03611060976982117,-0.015151401981711388,0.6415455341339111
1768578437711119400,3.438119384765625,0.03936898708343506,-0.03256447985768318,0.6321570873260498
1768578437721092400,3.44809228515625,0.02952369675040245,-0.028309624642133713,0.6276906132698059
1768578437731066400,3.45806640625,0.01735571399331093,-0.03865653648972511,0.6316587328910828
1768578437741039600,3.46803955078125,0.002529554069042206,-0.06964250653982162,0.6343325972557068
1768578437751012400,3.478012451171875,-0.015329336747527122,-0.11259104311466217,0.6312611699104309
1768578437760986400,3.487986328125,-0.034086667001247406,-0.17420367896556854,0.6393274068832397
1768578437770959400,3.49795947265625,-0.040151484310626984,-0.2281673103570938,0.6595080494880676
1768578437780933400,3.507933349609375,-0.05512997508049011,-0.2809794843196869,0.6634492874145508
1768578437790906400,3.51790625,-0.08500584959983826,-0.351797491312027,0.6766774654388428
1768578437800879400,3.52787939453125,-0.11878161877393723,-0.3409069776535034,0.6939838528633118
1768578437810853400,3.537853271484375,-0.1482526808977127,-0.2585330009460449,0.6760988831520081
1768578437820826400,3.547826416015625,-0.16321855783462524,-0.13600166141986847,0.661567211151123
1768578437830800400,3.55780029296875,-0.15205112099647522,-0.04867314547300339,0.6559029817581177
1768578437840773400,3.5677734375,-0.1351330429315567,-0.0002821749076247215,0.6631046533584595
1768578437850746400,3.577746337890625,-0.10983221977949142,0.051236942410469055,0.6941573619842529
1768578437860720400,3.587720458984375,-0.07537317276000977,0.05543086677789688,0.7298876047134399
1768578437870693400,3.597693359375,-0.04210576415061951,0.011045558378100395,0.7685306072235107
1768578437880667400,3.60766748046875,-0.03765897452831268,0.007785170339047909,0.8324508666992188
1768578437890640400,3.617640380859375,-0.050728969275951385,0.04391548037528992,0.8974967002868652
1768578437900613400,3.62761328125,-0.06059680134057999,0.07317523658275604,0.9635413289070129
1768578437910586400,3.63758642578125,-0.059302233159542084,0.09361260384321213,0.9973515272140503
1768578437920559400,3.647559326171875,-0.05472370982170105,0.08060397952795029,0.9686353206634521
1768578437930533400,3.657533447265625,-0.04997502639889717,0.07244858145713806,0.9205588698387146
1768578437940506000,3.667506103515625,-0.03897480294108391,0.04849512130022049,0.8677170872688293
1768578437950480100,3.677480224609375,-0.01489210408180952,0.03163118660449982,0.8030909895896912
1768578437960453400,3.687453369140625,0.0065644714049994946,0.015082204714417458,0.7503504753112793
1768578437970426400,3.69742626953125,0.02202545292675495,0.008163312450051308,0.7189136743545532
1768578437980400400,3.707400390625,0.028361855074763298,0.016883905977010727,0.7035746574401855
1768578437990373400,3.717373291015625,0.02939782477915287,0.06937933713197708,0.7560003399848938
1768578438000347400,3.727347412109375,0.031230555847287178,0.12686236202716827,0.8431968688964844
1768578438010320400,3.7373203125,0.022230669856071472,0.1719805747270584,0.8971322774887085
1768578438020293000,3.747293212890625,0.008883953094482422,0.17403289675712585,0.8921700716018677
1768578438030267100,3.75726708984375,0.02029959298670292,0.16288144886493683,0.8675904273986816
1768578438040240400,3.767240478515625,0.020787691697478294,0.190687894821167,0.8691691756248474
1768578438050214400,3.77721435546875,0.026555035263299942,0.1981431543827057,0.8650681972503662
1768578438060187400,3.7871875,0.031927332282066345,0.17429326474666595,0.8536571860313416
1768578438070160400,3.797160400390625,0.04166038706898689,0.16179770231246948,0.8445665240287781
1768578438080134400,3.807134521484375,0.04211006313562393,0.14410418272018433,0.854677677154541
1768578438090107100,3.817107177734375,0.041408587247133255,0.14236140251159668,0.8650381565093994
1768578438100081200,3.8270810546875,0.04764534533023834,0.14550429582595825,0.8618968725204468
1768578438110054100,3.83705419921875,0.0569608174264431,0.09696445614099503,0.8434070944786072
1768578438120028200,3.847028076171875,0.05734880268573761,0.0397823229432106,0.8329859972000122
1768578438130001400,3.85700146484375,0.041073959320783615,-0.004047183785587549,0.8357127904891968
1768578438139974400,3.866974365234375,0.020743124186992645,-0.05033962428569794,0.8266436457633972
1768578438149948400,3.876948486328125,0.010076896287500858,-0.07425162196159363,0.8140165209770203
1768578438159921400,3.88692138671875,0.005322829820215702,-0.07662837207317352,0.8084513545036316
1768578438169895400,3.8968955078125,0.0035624802112579346,-0.0711185559630394,0.8149552941322327
1768578438179868200,3.9068681640625,0.010101644322276115,-0.059548694640398026,0.8144262433052063
1768578438189841200,3.916841064453125,0.023401472717523575,-0.0572703592479229,0.8260917067527771
1768578438199815200,3.926815185546875,0.028905104845762253,-0.0767492726445198,0.8469043970108032
1768578438209788400,3.936788330078125,0.02414124459028244,-0.0691123902797699,0.8870331645011902
1768578438219762400,3.946762451171875,0.01505978498607874,0.03223926201462746,0.9102730751037598
1768578438229735400,3.9567353515625,0.0035240361467003822,0.0959886759519577,0.8895350694656372
1768578438239708400,3.96670849609375,-0.006804425735026598,0.08614972233772278,0.8351544141769409
1768578438249682400,3.976682373046875,-0.021020378917455673,0.019785616546869278,0.7795912623405457
1768578438259655200,3.9866552734375,-0.04362723231315613,-0.062181781977415085,0.7409437298774719
1768578438269629200,3.996629150390625,-0.07057655602693558,-0.08601387590169907,0.7332559823989868
1768578438279602200,4.006602294921875,-0.07850410044193268,-0.10094638913869858,0.7525315284729004
1768578438289576200,4.016576171875,-0.07788065820932388,-0.08360282331705093,0.7846894264221191
1768578438299549400,4.026549560546875,-0.07499571144580841,-0.050879113376140594,0.8211114406585693
1768578438309522400,4.0365224609375,-0.06097389757633209,-0.03310038149356842,0.840703547000885
1768578438319496400,4.046496337890625,-0.04309018328785896,-0.004908542614430189,0.8388043642044067
1768578438329469200,4.05646923828125,-0.019868750125169754,0.041852038353681564,0.8235308527946472
1768578438339443200,4.066443115234375,-0.009245933964848518,0.05933999642729759,0.8081490397453308
1768578438349416200,4.076416259765625,0.0009758099913597107,0.023503703996539116,0.7708437442779541
1768578438359390200,4.08639013671875,-0.005404248367995024,-0.0057673160918056965,0.7269558906555176
1768578438369363200,4.09636328125,-0.022341154515743256,-0.02671467512845993,0.6910426020622253
1768578438379336400,4.10633642578125,-0.03634679317474365,-0.021460043266415596,0.6528092622756958
1768578438389310500,4.116310546875,-0.04536106064915657,-0.018085284158587456,0.6273747682571411
1768578438399283500,4.126283447265625,-0.039889026433229446,-0.03945446386933327,0.6202815175056458
1768578438409257500,4.136257568359375,-0.03165027126669884,-0.029227126389741898,0.6430236101150513
1768578438419230200,4.146230224609375,-0.025891641154885292,0.0058637503534555435,0.6772703528404236
1768578438429203200,4.156203125,-0.02111872285604477,0.018801651895046234,0.72304368019104
1768578438439177200,4.16617724609375,-0.027210820466279984,0.04628118872642517,0.7879599332809448
1768578438449150200,4.176150146484375,-0.026561010628938675,0.1308876872062683,0.8536185622215271
1768578438459124200,4.186124267578125,-0.022468071430921555,0.19459199905395508,0.8974115252494812
1768578438469097500,4.196097412109375,-0.017620854079723358,0.21812662482261658,0.9066082239151001
1768578438479071500,4.206071533203125,-0.0158807635307312,0.24514475464820862,0.8902674317359924
1768578438489044500,4.21604443359375,-0.0212281234562397,0.22829759120941162,0.8766147494316101
1768578438499017200,4.226017333984375,-0.03137240931391716,0.20319890975952148,0.8724377751350403
1768578438508991200,4.2359912109375,-0.0445108488202095,0.18045765161514282,0.8584694862365723
1768578438518964200,4.245964111328125,-0.05197093263268471,0.12866735458374023,0.8152800798416138
1768578438528938200,4.255938232421875,-0.04598574340343475,0.057618483901023865,0.743095874786377
1768578438538911200,4.2659111328125,-0.05269784480333328,0.010942613705992699,0.6733006238937378
1768578438548884500,4.275884521484375,-0.06777746230363846,-0.015278603881597519,0.6307635307312012
1768578438558858500,4.2858583984375,-0.07926686853170395,-0.0007854150608181953,0.6242843270301819
1768578438568831200,4.295831298828125,-0.08281499892473221,0.05172759294509888,0.6549274325370789
1768578438578805200,4.30580517578125,-0.08776791393756866,0.06336243450641632,0.6830971240997314
1768578438588778200,4.3157783203125,-0.07706546783447266,0.04604123905301094,0.6910754442214966
1768578438598752300,4.325752197265625,-0.06654538959264755,0.05396970734000206,0.6944531798362732
1768578438608725200,4.335725341796875,-0.06326703727245331,0.043839842081069946,0.7024371027946472
1768578438618698200,4.3456982421875,-0.04976857453584671,0.06620974093675613,0.6975463032722473
1768578438628672300,4.35567236328125,-0.027845697477459908,0.12529250979423523,0.6679093241691589
1768578438638645500,4.3656455078125,-0.01729760132730007,0.13261818885803223,0.6301435828208923
1768578438648619500,4.37561962890625,0.017039066180586815,0.1664496511220932,0.595346212387085
1768578438658592300,4.38559228515625,0.04323054850101471,0.23824766278266907,0.5751317143440247
1768578438668565200,4.395565185546875,0.05910139158368111,0.267203688621521,0.5653679966926575
1768578438678539300,4.405539306640625,0.07886071503162384,0.2748973071575165,0.5822351574897766
1768578438688512300,4.41551220703125,0.10380148142576218,0.26109039783477783,0.6122340559959412
1768578438698486300,4.425486328125,0.11793296039104462,0.16953712701797485,0.6433221101760864
1768578438708459300,4.435459228515625,0.11510308086872101,0.08310902863740921,0.6743327379226685
1768578438718433300,4.445433349609375,0.11020882427692413,0.0433538444340229,0.6971631646156311
1768578438728406500,4.455406494140625,0.0925360918045044,-0.024456098675727844,0.7224669456481934
1768578438738379300,4.465379150390625,0.05863410234451294,-0.08563665300607681,0.7593544125556946
1768578438748353300,4.475353271484375,0.02132747694849968,-0.13899549841880798,0.7563709020614624
1768578438758326300,4.485326171875,-0.005474535282701254,-0.18518701195716858,0.7001870274543762
1768578438768300300,4.49530029296875,-0.033292584121227264,-0.2193809300661087,0.6345270276069641
1768578438778273300,4.505273193359375,-0.05738821625709534,-0.2244243174791336,0.569735050201416
1768578438788246300,4.515246337890625,-0.06327646970748901,-0.213729590177536,0.5090194940567017
1768578438798220300,4.52522021484375,-0.06061707064509392,-0.21535977721214294,0.45530763268470764
1768578438808193300,4.535193359375,-0.05378765985369682,-0.2596401572227478,0.41920608282089233
1768578438818167300,4.545167236328125,-0.04464312642812729,-0.2779373526573181,0.39931535720825195
1768578438828140300,4.555140380859375,-0.03471273183822632,-0.2644340693950653,0.379055380821228
1768578438838114300,4.5651142578125,-0.032870493829250336,-0.2548415958881378,0.3431794345378876
1768578438848087300,4.57508740234375,-0.027263475582003593,-0.2467879205942154,0.3400276005268097
1768578438858060300,4.585060302734375,-0.023150641471147537,-0.22661276161670685,0.36528295278549194
1768578438868034300,4.595034423828125,-0.019339125603437424,-0.21200399100780487,0.39451727271080017
1768578438878007300,4.60500732421875,-0.0018768887966871262,-0.1746266931295395,0.4167419970035553
1768578438887981300,4.614981201171875,-0.0007319962605834007,-0.10540181398391724,0.43969765305519104
1768578438897954800,4.624954833984375,0.00020406441763043404,-0.05461610481142998,0.458271861076355
1768578438907928800,4.6349287109375,0.0015415041707456112,-0.05221473425626755,0.4676416516304016
1768578438917902000,4.644902099609375,0.0035723920445889235,-0.08719857782125473,0.4673272669315338
1768578438927875000,4.654875,0.01041778177022934,-0.09372172504663467,0.46521592140197754
1768578438937849000,4.66484912109375,0.01639441028237343,-0.06630907952785492,0.4763491153717041
1768578438947821800,4.67482177734375,0.008527166210114956,-0.0591273307800293,0.5010424852371216
1768578438957795800,4.6847958984375,-0.00029096147045493126,-0.04306600242853165,0.5351811051368713
1768578438967768800,4.694768798828125,-0.009273271076381207,-0.0024229695554822683,0.5611492991447449
1768578438977742800,4.704742919921875,-0.014363884925842285,0.05436320602893829,0.564752995967865
1768578438987715800,4.7147158203125,-0.011313766241073608,0.08922585099935532,0.5531479716300964
1768578438997689000,4.724689208984375,-0.023263026028871536,0.0774960070848465,0.5673396587371826
1768578439007663000,4.7346630859375,-0.03632476553320885,0.07088097929954529,0.6055355072021484
1768578439017636000,4.744635986328125,-0.04082225263118744,0.036316268146038055,0.6314558386802673
1768578439027609900,4.75460986328125,-0.04288407415151596,-0.015383142977952957,0.6367515325546265
1768578439037582800,4.764582763671875,-0.03947810083627701,-0.011158909648656845,0.6071577072143555
1768578439047555800,4.774555908203125,-0.03805863484740257,0.028536304831504822,0.5535262227058411
1768578439057529900,4.78452978515625,-0.03756039962172508,0.056101106107234955,0.5010038018226624
1768578439067502800,4.7945029296875,-0.03446953371167183,0.1048116609454155,0.45753195881843567
1768578439077476900,4.804476806640625,-0.025749029591679573,0.1430877149105072,0.4217374920845032
1768578439087450000,4.8144501953125,-0.016722511500120163,0.15496301651000977,0.4118204116821289
1768578439097424100,4.824424072265625,-0.024144496768712997,0.21750004589557648,0.4102356731891632
1768578439107396900,4.83439697265625,-0.03360484167933464,0.3285791575908661,0.39636778831481934
1768578439117369900,4.844369873046875,-0.028934169560670853,0.38690415024757385,0.3533198833465576
1768578439127343900,4.85434375,-0.0180216021835804,0.37593913078308105,0.2843024730682373
1768578439137316900,4.86431689453125,0.0010259542614221573,0.2602856457233429,0.22616465389728546
1768578439147291000,4.874290771484375,0.02503781206905842,0.09349561482667923,0.23155170679092407
1768578439157264000,4.884263916015625,0.02799810655415058,0.007272003684192896,0.3125355541706085
1768578439167237000,4.894237060546875,-0.00630820170044899,0.003227194305509329,0.43272480368614197
1768578439177211100,4.904211181640625,-0.03822595998644829,-0.004280014894902706,0.5229734182357788
1768578439187183900,4.914183837890625,-0.05942925065755844,-0.03478465974330902,0.5364444851875305
1768578439197158000,4.924157958984375,-0.06129692494869232,-0.08272507041692734,0.48705318570137024
1768578439207131000,4.934130859375,-0.05185255408287048,-0.14241981506347656,0.39291682839393616
1768578439217105000,4.94410498046875,-0.03557531535625458,-0.1524476408958435,0.2857091724872589
1768578439227078000,4.954077880859375,-0.01879207417368889,-0.18482503294944763,0.17197063565254211
1768578439237051100,4.964051025390625,-0.006491712294518948,-0.22142206132411957,0.08542685210704803
1768578439247025000,4.97402490234375,0.010035065934062004,-0.2201426774263382,0.028563298285007477
1768578439256998000,4.983997802734375,0.014028551988303661,-0.2135283499956131,-0.019268952310085297
1768578439266972000,4.993971923828125,0.02554059773683548,-0.1822705715894699,-0.08957240730524063
1768578439276945000,5.00394482421875,0.04022756963968277,-0.1140078455209732,-0.17351458966732025
1768578439286919000,5.0139189453125,0.05401581898331642,-0.04886745661497116,-0.25209781527519226
1768578439296892000,5.023891845703125,0.059366509318351746,-0.01660110615193844,-0.3046262562274933
1768578439306865000,5.033864990234375,0.059428561478853226,0.005921246483922005,-0.3335151672363281
1768578439316839000,5.0438388671875,0.06277868896722794,0.038970254361629486,-0.3629106283187866
1768578439326812000,5.05381201171875,0.0662756860256195,0.018864452838897705,-0.41177722811698914
1768578439336786000,5.063785888671875,0.07465419173240662,-0.026978863403201103,-0.45797646045684814
1768578439346759000,5.073759033203125,0.06790920346975327,-0.06127851456403732,-0.46471184492111206
1768578439356732000,5.08373193359375,0.06518219411373138,-0.07509484887123108,-0.4518735706806183
1768578439366706000,5.093705810546875,0.06247881427407265,-0.07629167288541794,-0.43365779519081116
1768578439376679000,5.103678955078125,0.0563863180577755,-0.08280102163553238,-0.41595977544784546
1768578439386653000,5.11365283203125,0.05672241002321243,-0.0695456713438034,-0.39736318588256836
1768578439396626000,5.1236259765625,0.0522371344268322,-0.06951572000980377,-0.38717353343963623
1768578439406600000,5.133599853515625,0.052870698273181915,-0.11667417734861374,-0.3927358090877533
1768578439416573000,5.143572998046875,0.06438620388507843,-0.17023725807666779,-0.39708635210990906
1768578439426546000,5.1535458984375,0.06722088158130646,-0.16984231770038605,-0.38910457491874695
1768578439436520000,5.16352001953125,0.06094934418797493,-0.13681451976299286,-0.38558632135391235
1768578439446493000,5.173492919921875,0.06542664766311646,-0.0779980793595314,-0.3958461284637451
1768578439456467000,5.183467041015625,0.06326484680175781,-0.04505964368581772,-0.3991551697254181
1768578439466440000,5.19343994140625,0.05290328338742256,-0.05223153904080391,-0.3961750864982605
1768578439476414000,5.2034140625,0.055400531738996506,-0.07576247304677963,-0.4046226739883423
1768578439486387000,5.213386962890625,0.05392087996006012,-0.10543408244848251,-0.42645367980003357
1768578439496360000,5.22335986328125,0.050549887120723724,-0.099857397377491,-0.4406130611896515
1768578439506334000,5.233333984375,0.053135018795728683,-0.07997903227806091,-0.46313726902008057
1768578439516307000,5.243306884765625,0.07097482681274414,-0.08721191436052322,-0.4941437542438507
1768578439526281000,5.253281005859375,0.08995570987462997,-0.12909437716007233,-0.4969315528869629
1768578439536254000,5.26325390625,0.0961393490433693,-0.15563377737998962,-0.45925164222717285
1768578439546227000,5.27322705078125,0.0976158007979393,-0.17703361809253693,-0.41427111625671387
1768578439556201000,5.283200927734375,0.09946896135807037,-0.18141159415245056,-0.382608026266098
1768578439566174000,5.293174072265625,0.10620170086622238,-0.1485556662082672,-0.3701974153518677
1768578439576148000,5.30314794921875,0.10763126611709595,-0.10932479053735733,-0.38550257682800293
1768578439586121000,5.313120849609375,0.12105599045753479,-0.10144317150115967,-0.45000219345092773
1768578439596094700,5.3230947265625,0.1349056214094162,-0.15258702635765076,-0.5266937613487244
1768578439606068000,5.33306787109375,0.14365890622138977,-0.20326031744480133,-0.5835943222045898
1768578439616041000,5.343041015625,0.1535034030675888,-0.24662871658802032,-0.6210353374481201
1768578439626015000,5.353014892578125,0.15984570980072021,-0.27392956614494324,-0.6605068445205688
1768578439635988000,5.362988037109375,0.16062569618225098,-0.27698975801467896,-0.711953341960907
1768578439645962000,5.3729619140625,0.1594049036502838,-0.2805362939834595,-0.7433202862739563
1768578439655935000,5.38293505859375,0.15315523743629456,-0.26488474011421204,-0.7270914316177368
1768578439665908000,5.392907958984375,0.1458722949028015,-0.22880609333515167,-0.687699019908905
1768578439675882000,5.402882080078125,0.14363549649715424,-0.19938130676746368,-0.6610279679298401
1768578439685855000,5.41285498046875,0.15858061611652374,-0.20026573538780212,-0.6772095561027527
1768578439695829000,5.4228291015625,0.18465131521224976,-0.22962209582328796,-0.7297694087028503
1768578439705802000,5.432802001953125,0.21537354588508606,-0.24270755052566528,-0.7882489562034607
1768578439715776000,5.44277587890625,0.23447191715240479,-0.2103055864572525,-0.8635333776473999
1768578439725749000,5.4527490234375,0.23714759945869446,-0.2276933640241623,-0.9326536059379578
1768578439735721700,5.4627216796875,0.2525579631328583,-0.31088998913764954,-0.9540872573852539
1768578439745695700,5.47269580078125,0.2568427324295044,-0.39047348499298096,-0.931064784526825
1768578439755669000,5.4826689453125,0.2467094361782074,-0.4071906507015228,-0.901206910610199
1768578439765643000,5.49264306640625,0.21325427293777466,-0.4079422056674957,-0.8501338362693787
1768578439775616000,5.502615966796875,0.1794503629207611,-0.41286760568618774,-0.778462290763855
1768578439785589000,5.512589111328125,0.15664571523666382,-0.4021686315536499,-0.6865904331207275
1768578439795563000,5.52256298828125,0.13649941980838776,-0.36324530839920044,-0.5799314975738525
1768578439805536000,5.532535888671875,0.11380741745233536,-0.32806068658828735,-0.48093804717063904
1768578439815510000,5.542510009765625,0.09835270047187805,-0.27036571502685547,-0.443830668926239
1768578439825482800,5.552482666015625,0.1074117124080658,-0.2079191356897354,-0.44604963064193726
1768578439835456800,5.562456787109375,0.12184987962245941,-0.16959133744239807,-0.4807150959968567
1768578439845430000,5.572429931640625,0.15468426048755646,-0.11978861689567566,-0.5615079402923584
1768578439855403000,5.582403076171875,0.19758860766887665,-0.09008892625570297,-0.6843745708465576
1768578439865377000,5.592376953125,0.23654931783676147,-0.1290789395570755,-0.7998873591423035
1768578439875350000,5.60235009765625,0.2458759844303131,-0.22873437404632568,-0.8292161822319031
1768578439885324000,5.612323974609375,0.23959970474243164,-0.2905154526233673,-0.7959538102149963
1768578439895297000,5.622297119140625,0.2185666561126709,-0.31631019711494446,-0.7122548818588257
1768578439905270500,5.6322705078125,0.18840396404266357,-0.3394738435745239,-0.6107088327407837
1768578439915243500,5.642243408203125,0.16558660566806793,-0.3564247190952301,-0.5197778940200806
1768578439925216800,5.652216796875,0.1553581953048706,-0.3758354187011719,-0.4539746642112732
1768578439935190800,5.662190673828125,0.1511746495962143,-0.39990469813346863,-0.41923755407333374
1768578439945163500,5.67216357421875,0.1559654027223587,-0.4345763921737671,-0.4003767967224121
1768578439955137500,5.682137451171875,0.15932483971118927,-0.46667608618736267,-0.3781336545944214
1768578439965110500,5.692110595703125,0.17458023130893707,-0.44628241658210754,-0.3807944059371948
1768578439975083500,5.70208349609375,0.19648516178131104,-0.4010094404220581,-0.4348604679107666
1768578439985057500,5.7120576171875,0.21938781440258026,-0.4144706428050995,-0.5128628611564636
1768578439995030500,5.722030517578125,0.23292890191078186,-0.4854981601238251,-0.5623699426651001
1768578440005004500,5.732004638671875,0.2375659942626953,-0.5596810579299927,-0.5772489905357361
1768578440014977500,5.7419775390625,0.23258380591869354,-0.646166980266571,-0.5799084305763245
1768578440024951600,5.75195166015625,0.2356072962284088,-0.7185607552528381,-0.5918084979057312
1768578440034924500,5.761924560546875,0.23064948618412018,-0.7711590528488159,-0.5781620740890503
1768578440044897500,5.7718974609375,0.21422897279262543,-0.7830657958984375,-0.5279897451400757
1768578440054871600,5.78187158203125,0.21285368502140045,-0.7507023811340332,-0.4842645227909088
1768578440064844500,5.791844482421875,0.21111144125461578,-0.7333321571350098,-0.46098315715789795
1768578440074818600,5.801818603515625,0.2243282049894333,-0.7455079555511475,-0.460354208946228
1768578440084791600,5.81179150390625,0.2498127818107605,-0.6911046504974365,-0.47203323245048523
1768578440094764500,5.8217646484375,0.28432604670524597,-0.6261017918586731,-0.50613933801651
1768578440104738600,5.831738525390625,0.31743258237838745,-0.6310129761695862,-0.569271981716156
1768578440114711600,5.841711669921875,0.33548587560653687,-0.688626766204834,-0.6473426818847656
1768578440124685600,5.851685546875,0.3524390161037445,-0.7436695098876953,-0.7170823216438293
1768578440134658600,5.861658447265625,0.36618033051490784,-0.7616260647773743,-0.7482378482818604
1768578440144632600,5.871632568359375,0.3777373731136322,-0.7496042847633362,-0.7519729733467102
1768578440154605600,5.88160546875,0.3788657486438751,-0.7244790196418762,-0.7189469933509827
1768578440164578600,5.89157861328125,0.35392364859580994,-0.6598536372184753,-0.6273888349533081
1768578440174552600,5.901552490234375,0.3205093443393707,-0.5427945852279663,-0.48914703726768494
1768578440184525600,5.911525634765625,0.3075759708881378,-0.39654842019081116,-0.34459811449050903
1768578440194499600,5.92149951171875,0.31374356150627136,-0.266916424036026,-0.25093695521354675
1768578440204472600,5.93147265625,0.32503536343574524,-0.21227875351905823,-0.21974359452724457
1768578440214445600,5.941445556640625,0.33904924988746643,-0.20855650305747986,-0.21927900612354279
1768578440224419600,5.951419677734375,0.35533928871154785,-0.2016322761774063,-0.23272237181663513
1768578440234392600,5.961392578125,0.34857022762298584,-0.2205229252576828,-0.23658789694309235
1768578440244366600,5.97136669921875,0.3382941782474518,-0.22991935908794403,-0.24479708075523376
1768578440254339600,5.981339599609375,0.32754796743392944,-0.25719088315963745,-0.26813584566116333
1768578440264313300,5.991313232421875,0.31449607014656067,-0.2892606556415558,-0.29113781452178955
1768578440274286600,6.00128662109375,0.2944171726703644,-0.3451698422431946,-0.32092827558517456
1768578440284259600,6.011259521484375,0.26790353655815125,-0.4198978841304779,-0.3433467745780945
1768578440294233600,6.021233642578125,0.2504584491252899,-0.4646938741207123,-0.3423754572868347
1768578440304206600,6.03120654296875,0.22552165389060974,-0.456082820892334,-0.3302522301673889
1768578440314180600,6.0411806640625,0.2054796665906906,-0.4130791127681732,-0.3253878653049469
1768578440324153600,6.051153564453125,0.18649159371852875,-0.3342583477497101,-0.3178606927394867
1768578440334127600,6.061127685546875,0.18893906474113464,-0.2746787965297699,-0.2974710762500763
1768578440344100400,6.071100341796875,0.18898940086364746,-0.25133591890335083,-0.2470901906490326
1768578440354073600,6.081073486328125,0.18619795143604279,-0.24697834253311157,-0.19473539292812347
1768578440364047600,6.091047607421875,0.18918734788894653,-0.2786920666694641,-0.20435605943202972
1768578440374020600,6.1010205078125,0.2054714858531952,-0.3305390775203705,-0.24692177772521973
1768578440383994600,6.11099462890625,0.21466897428035736,-0.4015789031982422,-0.27358534932136536
1768578440393967600,6.120967529296875,0.2073097825050354,-0.4740065932273865,-0.28679007291793823
1768578440403940600,6.130940673828125,0.18288592994213104,-0.5165194272994995,-0.2752354145050049
1768578440413914600,6.14091455078125,0.16114379465579987,-0.5426599383354187,-0.25476890802383423
1768578440423887600,6.1508876953125,0.14697498083114624,-0.579548716545105,-0.2454718053340912
1768578440433861400,6.160861328125,0.1401374638080597,-0.6123964786529541,-0.25421929359436035
1768578440443834600,6.170834716796875,0.1424964964389801,-0.6201028823852539,-0.27913159132003784
1768578440453807600,6.1808076171875,0.14901988208293915,-0.6611090898513794,-0.2823760509490967
1768578440463781600,6.19078173828125,0.15628978610038757,-0.6882288455963135,-0.2745351791381836
1768578440473754600,6.200754638671875,0.1578597128391266,-0.6762242913246155,-0.2783085107803345
1768578440483728600,6.210728759765625,0.18646100163459778,-0.6667101383209229,-0.25974175333976746
1768578440493701400,6.220701416015625,0.21263989806175232,-0.6685172319412231,-0.22337214648723602
1768578440503675400,6.23067529296875,0.2069455236196518,-0.687064528465271,-0.21104542911052704
1768578440513648400,6.2406484375,0.19086690247058868,-0.6990038156509399,-0.21068976819515228
1768578440523621600,6.25062158203125,0.18487265706062317,-0.7068508267402649,-0.1936894804239273
1768578440533595600,6.260595703125,0.1661190539598465,-0.7393079400062561,-0.14287810027599335
1768578440543568600,6.270568603515625,0.13947945833206177,-0.7216565012931824,-0.09170252084732056
1768578440553542700,6.280542724609375,0.12083601206541061,-0.6827715039253235,-0.0730210468173027
1768578440563515600,6.290515625,0.12045864760875702,-0.6401529312133789,-0.07807919383049011
1768578440573488400,6.30048828125,0.12132013589143753,-0.6325206160545349,-0.09597896784543991
1768578440583462400,6.31046240234375,0.11955925822257996,-0.6212903261184692,-0.15055885910987854
1768578440593435600,6.320435546875,0.11912314593791962,-0.5851889252662659,-0.20551253855228424
1768578440603409400,6.330409423828125,0.13061335682868958,-0.5649904608726501,-0.21407699584960938
1768578440613382700,6.340382568359375,0.1322403997182846,-0.5360745787620544,-0.19243690371513367
1768578440623356700,6.350356689453125,0.11908517777919769,-0.5114323496818542,-0.15165485441684723
1768578440633329700,6.36032958984375,0.11899453401565552,-0.5334815979003906,-0.11836038529872894
1768578440643302700,6.370302734375,0.11698704212903976,-0.5811229348182678,-0.10133692622184753
1768578440653276700,6.380276611328125,0.11461371183395386,-0.598022997379303,-0.06896120309829712
1768578440663249400,6.39024951171875,0.11658338457345963,-0.5782370567321777,-0.045218586921691895
1768578440673223400,6.400223388671875,0.12059524655342102,-0.5493031144142151,-0.05363428220152855
1768578440683196700,6.41019677734375,0.13355419039726257,-0.5409831404685974,-0.08094953000545502
1768578440693170400,6.42017041015625,0.13468077778816223,-0.5124827027320862,-0.0954887643456459
1768578440703143700,6.430143798828125,0.13198460638523102,-0.47346895933151245,-0.12714070081710815
1768578440713116700,6.44011669921875,0.14374954998493195,-0.428201287984848,-0.13057366013526917
1768578440723090700,6.450090576171875,0.1396285742521286,-0.3817552328109741,-0.10638629645109177
1768578440733063400,6.4600634765625,0.1184079721570015,-0.38319870829582214,-0.0624052956700325
1768578440743037400,6.470037353515625,0.11520232260227203,-0.3926990032196045,-0.057564206421375275
1768578440753010400,6.480010498046875,0.12261901795864105,-0.382602721452713,-0.09530457854270935
1768578440762983700,6.489983642578125,0.13498647511005402,-0.4252316653728485,-0.11619175225496292
1768578440772957400,6.49995751953125,0.14146679639816284,-0.4886552095413208,-0.10805602371692657
1768578440782930700,6.5099306640625,0.14286495745182037,-0.5226587057113647,-0.10378538072109222
1768578440792904700,6.51990478515625,0.14540693163871765,-0.5524215698242188,-0.09613298624753952
1768578440802877700,6.529877685546875,0.14914441108703613,-0.5603551268577576,-0.0950930193066597
1768578440812851700,6.539851806640625,0.16902746260166168,-0.5124959349632263,-0.0915820524096489
1768578440822824400,6.549824462890625,0.19602127373218536,-0.47972920536994934,-0.09981921315193176
1768578440832797400,6.55979736328125,0.214095339179039,-0.4485773742198944,-0.14270806312561035
1768578440842771500,6.569771484375,0.22892647981643677,-0.42219582200050354,-0.1845841407775879
1768578440852744700,6.57974462890625,0.22644683718681335,-0.40709301829338074,-0.21310250461101532
1768578440862718500,6.589718505859375,0.2287861555814743,-0.3817056119441986,-0.2419101893901825
1768578440872691700,6.599691650390625,0.23241020739078522,-0.37150049209594727,-0.25473710894584656
1768578440882664700,6.609664794921875,0.22915050387382507,-0.39274320006370544,-0.2517642080783844
1768578440892638700,6.619638671875,0.2100326120853424,-0.41220375895500183,-0.23725615441799164
1768578440902615600,6.629615478515625,0.20066148042678833,-0.41021546721458435,-0.18007834255695343
1768578440912589600,6.639589599609375,0.20181921124458313,-0.3946543335914612,-0.13055115938186646
1768578440922562600,6.6495625,0.20293240249156952,-0.40269148349761963,-0.09933678805828094
1768578440932536600,6.65953662109375,0.20734302699565887,-0.3981471359729767,-0.10696838796138763
1768578440942509300,6.66950927734375,0.20464390516281128,-0.38135403394699097,-0.12815304100513458
1768578440952482600,6.679482666015625,0.1964583545923233,-0.33644798398017883,-0.14383909106254578
1768578440962456600,6.68945654296875,0.183741495013237,-0.2969605028629303,-0.132520392537117
1768578440972429600,6.6994296875,0.1645469069480896,-0.2753933072090149,-0.10351678729057312
1768578440982403600,6.709403564453125,0.13690808415412903,-0.2539508640766144,-0.08667735010385513
1768578440992376600,6.71937646484375,0.12607459723949432,-0.24651175737380981,-0.07823639363050461
1768578441002349600,6.729349609375,0.12913323938846588,-0.22461605072021484,-0.07384457439184189
1768578441012323600,6.739323486328125,0.12807510793209076,-0.20682498812675476,-0.07204592227935791
1768578441022296300,6.74929638671875,0.12795233726501465,-0.20684362947940826,-0.07134497910737991
1768578441032270300,6.759270263671875,0.12460659444332123,-0.22740256786346436,-0.07463521510362625
1768578441042243600,6.76924365234375,0.12149788439273834,-0.24969907104969025,-0.06500548869371414
1768578441052217600,6.779217529296875,0.12662720680236816,-0.2566741108894348,-0.07190073281526566
1768578441062190600,6.789190673828125,0.1244647279381752,-0.24858449399471283,-0.07554740458726883
1768578441072163600,6.79916357421875,0.1078074499964714,-0.2744264304637909,-0.04442860186100006
1768578441082137600,6.8091376953125,0.09493932127952576,-0.3313179612159729,-0.02666558139026165
1768578441092110600,6.819110595703125,0.0844227522611618,-0.34681716561317444,-0.025516629219055176
1768578441102084600,6.829084716796875,0.0820101946592331,-0.3491452932357788,-0.028267940506339073
1768578441112057300,6.839057373046875,0.08306862413883209,-0.3728925585746765,-0.02376709133386612
1768578441122031400,6.84903125,0.08071225881576538,-0.3974732756614685,-0.015354964882135391
1768578441132004600,6.859004638671875,0.0834541767835617,-0.3778687119483948,-0.021431971341371536
1768578441141977600,6.8689775390625,0.09233368933200836,-0.3924785256385803,-0.019969629123806953
1768578441151951600,6.87895166015625,0.10204406827688217,-0.4311482608318329,-0.003019818104803562
1768578441161924600,6.888924560546875,0.11532977968454361,-0.45162397623062134,-0.009307009167969227
1768578441171898600,6.898898681640625,0.11751807481050491,-0.47260525822639465,-0.002299595857039094
1768578441181871400,6.908871337890625,0.11540059745311737,-0.49608635902404785,0.002218989422544837
1768578441191844400,6.91884423828125,0.10218397527933121,-0.5197327136993408,0.01032839622348547
1768578441201818400,6.928818359375,0.1001189574599266,-0.511727511882782,0.01690933294594288
1768578441211791600,6.93879150390625,0.0991489365696907,-0.49530157446861267,0.013365616090595722
1768578441221765600,6.948765625,0.1075323075056076,-0.49862760305404663,0.005620344541966915
1768578441231738600,6.958738525390625,0.10620291531085968,-0.504484236240387,-0.0010218335082754493
1768578441241711600,6.968711669921875,0.099434494972229,-0.5125781297683716,0.00992455706000328
1768578441251685600,6.978685546875,0.09419289231300354,-0.5378469824790955,0.028049901127815247
1768578441261658400,6.988658447265625,0.09188686311244965,-0.5493031144142151,0.025136403739452362
1768578441271632400,6.99863232421875,0.0949217826128006,-0.5284850001335144,0.01189363468438387
1768578441281605400,7.00860546875,0.10705434530973434,-0.5074476599693298,0.006043468602001667
1768578441291579400,7.018579345703125,0.1075848788022995,-0.46956977248191833,0.009131241589784622
1768578441301552600,7.028552734375,0.11023873090744019,-0.4034288227558136,0.01839478127658367
1768578441311525600,7.038525634765625,0.10302618145942688,-0.36148491501808167,0.018667634576559067
1768578441321499600,7.048499755859375,0.10053053498268127,-0.33023643493652344,-0.006464616861194372
1768578441331472600,7.05847265625,0.10531796514987946,-0.3139945864677429,-0.04139462113380432
1768578441341446700,7.06844677734375,0.10827913135290146,-0.3163701295852661,-0.054169006645679474
1768578441351419400,7.07841943359375,0.10984738916158676,-0.33584505319595337,-0.06334886699914932
1768578441361392400,7.088392333984375,0.10899517685174942,-0.35255107283592224,-0.0613994374871254
1768578441371366400,7.098366455078125,0.10183651000261307,-0.3617786467075348,-0.04825451225042343
1768578441381339600,7.108339599609375,0.09882287681102753,-0.36119142174720764,-0.03307316452264786
1768578441391313700,7.118313720703125,0.10117515176534653,-0.3696301579475403,-0.016430415213108063
1768578441401286700,7.12828662109375,0.10761600732803345,-0.36612650752067566,-0.014986715279519558
1768578441411260700,7.1382607421875,0.11935864388942719,-0.35623636841773987,-0.029601451009511948
1768578441421233400,7.1482333984375,0.13078254461288452,-0.3745591640472412,-0.05196215212345123
1768578441431206400,7.158206298828125,0.1441844403743744,-0.3896496295928955,-0.07654211670160294
1768578441441180400,7.168180419921875,0.13871990144252777,-0.41157758235931396,-0.09753528237342834
1768578441451153400,7.1781533203125,0.12136571854352951,-0.45040056109428406,-0.09060190618038177
1768578441461127400,7.18812744140625,0.11591236293315887,-0.4782593548297882,-0.08497890830039978
1768578441471100700,7.1981005859375,0.09784673154354095,-0.4994312822818756,-0.07781947404146194
1768578441481073700,7.20807373046875,0.094528429210186,-0.47359997034072876,-0.09428340196609497
1768578441491047700,7.218047607421875,0.09688831865787506,-0.5022953152656555,-0.11389168351888657
1768578441501020400,7.2280205078125,0.10384982079267502,-0.5335962772369385,-0.12671427428722382
1768578441510994400,7.237994384765625,0.13075383007526398,-0.5317344665527344,-0.14412909746170044
1768578441520967400,7.247967529296875,0.1746634989976883,-0.4815608263015747,-0.16294725239276886
1768578441530940400,7.2579404296875,0.2109178751707077,-0.4794686734676361,-0.14519764482975006
1768578441540914400,7.26791455078125,0.20620034635066986,-0.4860149919986725,-0.10919331014156342
1768578441550887700,7.2778876953125,0.18964622914791107,-0.48077571392059326,-0.08029142767190933
1768578441560861700,7.28786181640625,0.17628195881843567,-0.47218143939971924,-0.06896393746137619
1768578441570834700,7.297834716796875,0.16600264608860016,-0.47421592473983765,-0.07948118448257446
1768578441580808700,7.30780859375,0.14511068165302277,-0.45164456963539124,-0.09609637409448624
1768578441590781400,7.317781494140625,0.13383662700653076,-0.43025878071784973,-0.10624979436397552
1768578441600754400,7.32775439453125,0.11952081322669983,-0.44098731875419617,-0.10195066034793854
1768578441610728400,7.337728515625,0.10608816891908646,-0.43975767493247986,-0.07886695861816406
1768578441620701400,7.347701416015625,0.09892106801271439,-0.4212995767593384,-0.05844983458518982
1768578441630675500,7.357675537109375,0.09940209984779358,-0.41921940445899963,-0.03762359172105789
1768578441640648700,7.367648681640625,0.1063992828130722,-0.4010332226753235,-0.026635389775037766
1768578441650621400,7.377621337890625,0.11490713059902191,-0.34004220366477966,-0.028094207867980003
1768578441660595500,7.387595458984375,0.11920440942049026,-0.2808164358139038,-0.05054332688450813
1768578441670568400,7.397568359375,0.1223568320274353,-0.23606142401695251,-0.056620799005031586
1768578441680542500,7.40754248046875,0.11400249600410461,-0.21783289313316345,-0.036447085440158844
1768578441690515500,7.417515380859375,0.09262712299823761,-0.2213401049375534,-0.011111259460449219
1768578441700488400,7.427488525390625,0.07223690301179886,-0.23626179993152618,-0.014859659597277641
1768578441710462500,7.43746240234375,0.05080581456422806,-0.24138088524341583,-0.043222472071647644
1768578441720435700,7.447435791015625,0.04445098340511322,-0.24144266545772552,-0.0710168108344078
1768578441730409700,7.45740966796875,0.03786380589008331,-0.23977698385715485,-0.0880827009677887
1768578441740382500,7.467382568359375,0.02869880199432373,-0.203395277261734,-0.09314990043640137
1768578441750356500,7.4773564453125,0.02040533721446991,-0.16313424706459045,-0.07044626027345657
1768578441760329500,7.48732958984375,0.011724764481186867,-0.15270105004310608,-0.027622632682323456
1768578441770302500,7.497302490234375,0.00415155291557312,-0.13802069425582886,0.007753962650895119
1768578441780276500,7.5072763671875,0.005023471545428038,-0.1391083300113678,0.03449716046452522
1768578441790249500,7.51724951171875,0.011596133932471275,-0.12704043090343475,0.03421703353524208
1768578441800223500,7.527223388671875,0.019478291273117065,-0.09999150782823563,0.01191359106451273
1768578441810196700,7.53719677734375,0.025126589462161064,-0.07111986726522446,-0.014792824164032936
1768578441820169500,7.54716943359375,0.035479363054037094,-0.046068042516708374,-0.022895226255059242
1768578441830143500,7.5571435546875,0.027407683432102203,-0.028939170762896538,-0.002693404210731387
1768578441840116500,7.567116455078125,0.01909089833498001,-0.013048356398940086,0.014048291370272636
1768578441850090500,7.577090576171875,0.019837437197566032,-0.0021635573357343674,0.02295873686671257
1768578441860063500,7.5870634765625,0.011472715064883232,0.016404535621404648,0.028579339385032654
1768578441870036500,7.597036376953125,0.006657530087977648,0.03655916452407837,0.04002451151609421
1768578441880010500,7.607010498046875,0.0032614669762551785,0.0672835186123848,0.04784940928220749
1768578441889983500,7.6169833984375,0.0018399101682007313,0.09415275603532791,0.05368878319859505
1768578441899954400,7.626954345703125,0.001694501843303442,0.13050463795661926,0.052591826766729355
1768578441909927700,7.636927734375,0.008857928216457367,0.14065808057785034,0.05880393832921982
1768578441919900700,7.646900634765625,0.01808125339448452,0.17373880743980408,0.041982345283031464
1768578441929874700,7.656874755859375,0.017827017232775688,0.2252996861934662,0.00018577929586172104
1768578441939847400,7.666847412109375,0.015229104086756706,0.2671390175819397,-0.025311589241027832
1768578441949821400,7.676821533203125,0.011507794260978699,0.31033042073249817,-0.01960597187280655
1768578441959794400,7.68679443359375,0.0025108368135988712,0.34357917308807373,0.0028942786157131195
1768578441969767700,7.696767578125,-0.0011819396167993546,0.39190220832824707,0.01747656986117363
1768578441979741700,7.70674169921875,0.011620674282312393,0.4479638934135437,0.00564281502738595
1768578441989714700,7.716714599609375,0.027446337044239044,0.5246849060058594,-0.014948099851608276
1768578441999688700,7.726688720703125,0.02062837779521942,0.6049395799636841,-0.046658359467983246
1768578442009661700,7.73666162109375,0.02107599936425686,0.6087930202484131,-0.04633558541536331
1768578442019634400,7.746634521484375,0.02215884067118168,0.6151657104492188,-0.021552741527557373
1768578442029608400,7.7566083984375,0.016893789172172546,0.6685290932655334,-0.027556974440813065
1768578442039581400,7.76658154296875,0.005163097288459539,0.6938762664794922,-0.03702371194958687
1768578442049555500,7.776555419921875,-0.003947253804653883,0.7194587588310242,-0.06177079677581787
1768578442059528700,7.78652880859375,-0.0024652048014104366,0.764886200428009,-0.09045384079217911
1768578442069502700,7.796502685546875,-0.012558527290821075,0.8484541177749634,-0.11433035135269165
1768578442079475700,7.806475830078125,-0.014649907127022743,0.9177674055099487,-0.10404787957668304
1768578442089448400,7.816448486328125,-0.0023748651146888733,0.9795843958854675,-0.0688486248254776
1768578442099422500,7.82642236328125,0.018238533288240433,0.9705637097358704,-0.018798505887389183
1768578442109395500,7.8363955078125,0.03596101328730583,0.9708572030067444,-0.007867619395256042
1768578442119369500,7.846369384765625,0.05278952792286873,0.9604541063308716,-0.05778750777244568
1768578442129342500,7.856342529296875,0.05747229605913162,0.938072144985199,-0.09961270540952682
1768578442139315700,7.866315673828125,0.05770079791545868,0.9345700740814209,-0.12409461289644241
1768578442149289700,7.876289794921875,0.04483065381646156,0.9411284923553467,-0.12903469800949097
1768578442159262700,7.8862626953125,0.015638146549463272,0.921607494354248,-0.126008540391922
1768578442169236700,7.89623681640625,-0.009370990097522736,0.874136745929718,-0.11235135793685913
1768578442179209500,7.90620947265625,-0.026492983102798462,0.8722214102745056,-0.09357021749019623
1768578442189182500,7.916182373046875,-0.04120997339487076,0.9363546371459961,-0.05782168731093407
1768578442199156500,7.926156494140625,-0.04003392159938812,0.9649556279182434,-0.030559174716472626
1768578442209129500,7.93612939453125,-0.017510123550891876,0.9907569885253906,-0.004184762015938759
1768578442219103500,7.946103515625,-0.004314427729696035,1.063437581062317,0.030317556113004684
1768578442229076700,7.95607666015625,-0.0012869061902165413,1.0864343643188477,0.05719324201345444
1768578442239049700,7.9660498046875,0.0127162616699934,1.0815865993499756,0.038288526237010956
1768578442249023700,7.976023681640625,0.022122222930192947,1.0510178804397583,-0.02052796259522438
1768578442258996500,7.98599658203125,0.025461826473474503,1.0109868049621582,-0.08260837942361832
1768578442268970500,7.995970458984375,0.021232401952147484,0.9546627998352051,-0.107113778591156
1768578442278943500,8.005943603515625,0.018389742821455002,0.925463080406189,-0.09577909857034683
1768578442288916500,8.01591650390625,0.021610494703054428,0.9178741574287415,-0.07067875564098358
1768578442298890500,8.025890380859375,0.009825208224356174,0.9238771796226501,-0.04141834005713463
1768578442308863700,8.03586376953125,-0.0041165538132190704,0.9584485292434692,-0.029788685962557793
1768578442318837800,8.045837646484374,0.002791419392451644,1.0032932758331299,-0.024495121091604233
1768578442328810500,8.055810546875,0.025805428624153137,1.03589928150177,-0.039469923824071884
1768578442338783500,8.065783447265625,0.02228659577667713,1.0580905675888062,-0.06786374747753143
1768578442348757500,8.075757568359375,0.01053408533334732,1.1161538362503052,-0.10969888418912888
1768578442358730500,8.08573046875,-0.00020644348114728928,1.1750693321228027,-0.09109856933355331
1768578442368704500,8.09570458984375,-0.006558767054229975,1.1988080739974976,-0.04534511640667915
1768578442378677500,8.105677490234376,-0.025240043178200722,1.1983041763305664,-0.0018178800819441676
1768578442388650800,8.115650634765625,-0.03661113604903221,1.233747124671936,0.0377209447324276
1768578442398624800,8.125624755859375,-0.04027990624308586,1.3412716388702393,0.07009432464838028
1768578442408597500,8.135597412109375,-0.024391958490014076,1.465600848197937,0.09846079349517822
1768578442418571500,8.145571533203125,-0.0049767158925533295,1.603542447090149,0.07872676849365234
1768578442428544500,8.15554443359375,-0.015168767422437668,1.758630394935608,0.012949347496032715
1768578442438517500,8.165517578125,-0.023617379367351532,1.8714431524276733,0.018653837963938713
1768578442448491500,8.175491455078125,-0.012076189741492271,1.9575573205947876,0.05228511244058609
1768578442458464500,8.185464599609375,-0.03107704408466816,1.957083821296692,0.030072754248976707
1768578442468438500,8.1954384765625,-0.055532339960336685,1.8547930717468262,0.008177646435797215
1768578442478411800,8.205411865234375,-0.06980980932712555,1.7203418016433716,0.004854287952184677
1768578442488384500,8.215384521484374,-0.09608685970306396,1.6375080347061157,0.006315980572253466
1768578442498358500,8.225358642578126,-0.10950440168380737,1.5891386270523071,0.0007590283639729023
1768578442508331500,8.23533154296875,-0.1026448979973793,1.4738852977752686,-0.0027395663782954216
1768578442518305500,8.245305419921875,-0.10174820572137833,1.4049605131149292,-0.01708335243165493
1768578442528278500,8.255278564453125,-0.100375235080719,1.417641043663025,0.036361560225486755
1768578442538251500,8.26525146484375,-0.07622303068637848,1.4783393144607544,0.08571765571832657
1768578442548225500,8.2752255859375,-0.0716460645198822,1.4989995956420898,0.0405435748398304
1768578442558198500,8.285198486328126,-0.07419364154338837,1.5037522315979004,0.0009567514061927795
1768578442568172500,8.295172607421875,-0.06622329354286194,1.4940444231033325,-0.010622845962643623
1768578442578145500,8.3051455078125,-0.0669814944267273,1.4395116567611694,0.00505811208859086
1768578442588118500,8.315118408203125,-0.07675816863775253,1.3690348863601685,0.03162666782736778
1768578442598092500,8.325092529296874,-0.08270873874425888,1.2989063262939453,0.04911404848098755
1768578442608065500,8.3350654296875,-0.09799846261739731,1.2236838340759277,0.047186896204948425
1768578442618039600,8.34503955078125,-0.1174619048833847,1.1901754140853882,0.061140794306993484
1768578442628012500,8.355012451171875,-0.11370179057121277,1.1433541774749756,0.018738489598035812
1768578442637985500,8.364985595703125,-0.1526166945695877,1.0393664836883545,-0.07433393597602844
1768578442647959600,8.37495947265625,-0.21109485626220703,0.9168936014175415,-0.1536831259727478
1768578442657932500,8.3849326171875,-0.23682790994644165,0.8155049681663513,-0.1792079210281372
1768578442667906600,8.394906494140624,-0.25733673572540283,0.7771542072296143,-0.16295160353183746
1768578442677879600,8.404879638671876,-0.2646583020687103,0.7842667102813721,-0.1258937120437622
1768578442687852500,8.4148525390625,-0.23551280796527863,0.8141903281211853,-0.09981624037027359
1768578442697826600,8.42482666015625,-0.21384267508983612,0.8235699534416199,-0.08612732589244843
1768578442707799600,8.434799560546875,-0.19449198246002197,0.8489084243774414,-0.07994627952575684
1768578442717773600,8.444773681640624,-0.19180111587047577,0.8442037105560303,-0.090853251516819
1768578442727746600,8.45474658203125,-0.19705595076084137,0.8616812825202942,-0.13208450376987457
1768578442737719600,8.464719482421875,-0.20647022128105164,0.8948432803153992,-0.16595084965229034
1768578442747693600,8.474693603515625,-0.2165120244026184,0.9415600895881653,-0.18220141530036926
1768578442757666600,8.48466650390625,-0.23069602251052856,0.9603601694107056,-0.1975763738155365
1768578442767640600,8.494640625,-0.2407071888446808,0.9576383829116821,-0.2042994499206543
1768578442777613600,8.504613525390624,-0.2212062031030655,0.9469617605209351,-0.19024647772312164
1768578442787586600,8.514586669921876,-0.20669624209403992,0.9716147184371948,-0.14504994451999664
1768578442797560600,8.524560546875,-0.19585716724395752,1.0159938335418701,-0.12530581653118134
1768578442807533600,8.534533447265625,-0.18466608226299286,1.043695092201233,-0.134770467877388
1768578442817507600,8.544507568359375,-0.16818271577358246,1.1013673543930054,-0.13194938004016876
1768578442827480600,8.55448046875,-0.14306992292404175,1.1865524053573608,-0.12558893859386444
1768578442837454600,8.56445458984375,-0.13173870742321014,1.2554808855056763,-0.12748298048973083
1768578442847427600,8.574427490234376,-0.11458223313093185,1.2789710760116577,-0.13870972394943237
1768578442857400600,8.584400634765625,-0.10153806954622269,1.2806466817855835,-0.12884536385536194
1768578442867374600,8.59437451171875,-0.0996059849858284,1.2879341840744019,-0.0952497199177742
1768578442877347600,8.60434765625,-0.08719618618488312,1.3158384561538696,-0.0601804181933403
1768578442887320600,8.614320556640624,-0.09112565964460373,1.367946743965149,-0.03768822178244591
1768578442897294600,8.624294677734374,-0.10908601433038712,1.4227867126464844,-0.021617377176880836
1768578442907266800,8.634266845703126,-0.13493503630161285,1.4624887704849243,-0.03745048865675926
1768578442917240800,8.64424072265625,-0.16235947608947754,1.459375262260437,-0.07449718564748764
1768578442927213600,8.654213623046875,-0.17562854290008545,1.4362808465957642,-0.11617778986692429
1768578442937186800,8.664186767578125,-0.1808968037366867,1.413651704788208,-0.12313156574964523
1768578442947160800,8.674160888671874,-0.19659097492694855,1.3831642866134644,-0.10107910633087158
1768578442957133800,8.6841337890625,-0.20972248911857605,1.3636462688446045,-0.06592617928981781
1768578442967107800,8.69410791015625,-0.2115052044391632,1.3418221473693848,-0.05280433967709541
1768578442977080800,8.704080810546875,-0.2018166184425354,1.3368738889694214,-0.03943953290581703
1768578442987054800,8.714054931640625,-0.184480682015419,1.3675177097320557,-0.008369791321456432
1768578442997027800,8.72402783203125,-0.15368814766407013,1.3826932907104492,0.008241408504545689
1768578443007000600,8.73400048828125,-0.12613411247730255,1.392346739768982,0.032604582607746124
1768578443016974600,8.743974609375,-0.10926298052072525,1.425268530845642,0.06916391849517822
1768578443026947800,8.75394775390625,-0.0983608141541481,1.4331860542297363,0.09148608893156052
1768578443036920800,8.7639208984375,-0.10216300934553146,1.4273982048034668,0.09754903614521027
1768578443046894800,8.773894775390625,-0.1111886203289032,1.374446153640747,0.08320371806621552
1768578443056867800,8.783867919921875,-0.12416594475507736,1.3038558959960938,0.06486812233924866
1768578443066841900,8.793841796875,-0.12365388870239258,1.2704710960388184,0.060306429862976074
1768578443076814800,8.80381494140625,-0.11822929978370667,1.2332448959350586,0.05106313154101372
1768578443086787600,8.81378759765625,-0.1314089149236679,1.1840296983718872,0.050487250089645386
1768578443096761600,8.82376171875,-0.14265064895153046,1.1443182229995728,0.03943273425102234
1768578443106734800,8.83373486328125,-0.1460270881652832,1.0824984312057495,0.024294298142194748
1768578443116708900,8.843708984375,-0.14465929567813873,1.0143002271652222,0.022219162434339523
1768578443126681900,8.853681884765624,-0.11846771836280823,0.9618346095085144,0.04128298535943031
1768578443136654800,8.86365478515625,-0.07790511846542358,0.9517995715141296,0.07923009991645813
1768578443146628900,8.87362890625,-0.04382580146193504,0.9672835469245911,0.11410830169916153
1768578443156601600,8.8836015625,-0.025805791839957237,0.9796470403671265,0.12266211211681366
1768578443166575600,8.89357568359375,-0.023464873433113098,0.9777353405952454,0.10168572515249252
1768578443176548600,8.903548583984374,-0.027117133140563965,0.9478759765625,0.06580682098865509
1768578443186521900,8.91352197265625,-0.037166476249694824,0.9084163904190063,0.027530953288078308
1768578443196496000,8.923495849609376,-0.06098925322294235,0.8813802599906921,0.02688273973762989
1768578443206468900,8.93346875,-0.09083975106477737,0.8774194121360779,0.04025363549590111
1768578443216443000,8.94344287109375,-0.09908515959978104,0.9310634732246399,0.05616655573248863
1768578443226415900,8.953415771484375,-0.09412194043397903,0.9700784683227539,0.05894175544381142
1768578443236388600,8.963388671875,-0.08838389068841934,1.0011192560195923,0.06264541298151016
1768578443246362600,8.973362548828124,-0.08064476400613785,1.017021894454956,0.07305792719125748
1768578443256335600,8.983335693359376,-0.0644676610827446,1.0016202926635742,0.07901141792535782
1768578443266309600,8.9933095703125,-0.02974511869251728,0.9808091521263123,0.06316912919282913
1768578443276283000,9.003282958984375,0.011685413308441639,0.975452184677124,0.022973503917455673
1768578443286255900,9.013255859375,0.04943741112947464,0.9806294441223145,-0.005919231101870537
1768578443296230000,9.02322998046875,0.06518308073282242,1.0052871704101562,-0.0329148955643177
1768578443306203000,9.033202880859376,0.06258463859558105,1.027704119682312,-0.052775412797927856
1768578443316177000,9.043177001953126,0.047233644872903824,1.0219112634658813,-0.07344207167625427
1768578443326149600,9.053149658203125,0.025728505104780197,0.9996703267097473,-0.09437619149684906
1768578443336122600,9.06312255859375,0.007553763221949339,0.9709499478340149,-0.1113613024353981
1768578443346096600,9.0730966796875,-0.0133739672601223,0.9741908311843872,-0.11583298444747925
1768578443356070000,9.08306982421875,-0.037119507789611816,1.0159660577774048,-0.11270297318696976
1768578443366044000,9.0930439453125,-0.05354519560933113,1.0930464267730713,-0.12366117537021637
1768578443376017000,9.103016845703126,-0.06228142976760864,1.1478254795074463,-0.14948931336402893
1768578443385989600,9.11298974609375,-0.051056817173957825,1.1982836723327637,-0.18564698100090027
1768578443395963600,9.122963623046875,-0.04266706109046936,1.2415778636932373,-0.19485487043857574
1768578443405936600,9.1329365234375,-0.038433611392974854,1.286805510520935,-0.1873411387205124
1768578443415910000,9.142909912109374,-0.03601013123989105,1.3284395933151245,-0.1745118945837021
1768578443425883600,9.152883544921876,-0.05839253589510918,1.3614877462387085,-0.16423875093460083
1768578443435857000,9.16285693359375,-0.09176807105541229,1.4242392778396606,-0.16004613041877747
1768578443445831000,9.172830810546875,-0.1342659443616867,1.5405224561691284,-0.16742785274982452
1768578443455804000,9.182803955078125,-0.17388445138931274,1.6582653522491455,-0.18167389929294586
1768578443465776600,9.192776611328124,-0.24322214722633362,1.7278900146484375,-0.22197246551513672
1768578443475750700,9.202750732421874,-0.3370833992958069,1.718570590019226,-0.27125000953674316
1768578443485723600,9.2127236328125,-0.447519451379776,1.6673046350479126,-0.31014931201934814
1768578443495697700,9.22269775390625,-0.5466921329498291,1.562010645866394,-0.3524826467037201
1768578443505671000,9.2326708984375,-0.6026476621627808,1.3800956010818481,-0.35577628016471863
1768578443515644000,9.242643798828125,-0.6182383298873901,1.2124773263931274,-0.31573379039764404
1768578443525618000,9.252617919921875,-0.6003548502922058,1.1163867712020874,-0.23901763558387756
1768578443535591000,9.2625908203125,-0.5695639252662659,1.0085889101028442,-0.16772136092185974
1768578443545565000,9.27256494140625,-0.4992864429950714,0.8684088587760925,-0.08884306997060776
1768578443555537700,9.28253759765625,-0.4128205180168152,0.7384652495384216,-0.010282481089234352
1768578443565510700,9.2925107421875,-0.33351144194602966,0.6301060318946838,0.0334538072347641
1768578443575484700,9.302484619140625,-0.2845015525817871,0.5295416116714478,0.043467290699481964
1768578443585458000,9.3124580078125,-0.25148719549179077,0.4807285964488983,0.027275633066892624
1768578443595431000,9.322430908203126,-0.2330021858215332,0.4696298837661743,-0.0012654642341658473
1768578443605405000,9.332405029296876,-0.20599323511123657,0.48357874155044556,-0.029087373986840248
1768578443615377700,9.342377685546875,-0.16440105438232422,0.498602956533432,-0.06976955384016037
1768578443625351700,9.3523515625,-0.10589605569839478,0.4996892809867859,-0.09347223490476608
1768578443635324700,9.36232470703125,-0.041101351380348206,0.49677711725234985,-0.09252174943685532
1768578443645297700,9.372297607421874,0.014392513781785965,0.4986938536167145,-0.08834768086671829
1768578443655271700,9.382271728515626,0.05985639989376068,0.5261603593826294,-0.0896984338760376
1768578443665245000,9.392244873046875,0.08883604407310486,0.5933313965797424,-0.06349076330661774
1768578443675219000,9.402218994140625,0.11271900683641434,0.6968162655830383,-0.041770294308662415
1768578443685192000,9.41219189453125,0.1280907392501831,0.7904852032661438,-0.045424800366163254
1768578443695164700,9.42216455078125,0.13223861157894135,0.8287196755409241,-0.0703866109251976
1768578443705138700,9.432138671875,0.13463927805423737,0.8208253979682922,-0.11515337973833084
1768578443715111700,9.442111572265626,0.12349048256874084,0.8032006025314331,-0.14373868703842163
1768578443725084700,9.452084716796875,0.08713389188051224,0.7732691764831543,-0.13780096173286438
1768578443735058700,9.46205859375,0.04479282349348068,0.738018810749054,-0.11217708885669708
1768578443745032000,9.472031982421875,0.016428828239440918,0.6656191945075989,-0.08606985956430435
1768578443755006000,9.482005859375,0.017658941447734833,0.5833141803741455,-0.07562360912561417
1768578443764979000,9.49197900390625,0.02140773832798004,0.5255310535430908,-0.06875317543745041
1768578443774951700,9.50195166015625,0.02446877583861351,0.5014105439186096,-0.048808760941028595
1768578443784925700,9.51192578125,0.018742848187685013,0.49263355135917664,-0.02298755943775177
1768578443794898700,9.521898681640625,0.019069617614150047,0.45777490735054016,-0.006391272880136967
1768578443804872700,9.531872802734375,0.008812621235847473,0.3737921118736267,-0.02928047999739647
1768578443814845700,9.541845703125,-0.007179127540439367,0.287922739982605,-0.07524184882640839
1768578443824819000,9.55181884765625,-0.013307935558259487,0.22527183592319489,-0.10104438662528992
1768578443834793000,9.56179296875,-0.0065152766183018684,0.20854318141937256,-0.10596217960119247
1768578443844765700,9.571765625,-0.002686183899641037,0.2337619960308075,-0.09558171033859253
1768578443854738700,9.58173876953125,-0.007916898466646671,0.25685158371925354,-0.06541768461465836
1768578443864712700,9.591712646484375,-0.010048037394881248,0.2794007360935211,-0.029924359172582626
1768578443874685700,9.601685791015624,-0.0003671799786388874,0.29263585805892944,-0.005007823929190636
1768578443884659700,9.61165966796875,0.03364627808332443,0.31576114892959595,0.005496085621416569
1768578443894632700,9.6216328125,0.06761596351861954,0.340936541557312,-0.0013945773243904114
1768578443904605400,9.63160546875,0.07036259770393372,0.3383027911186218,-0.02155143767595291
1768578443914579500,9.641579345703125,0.0520339198410511,0.3076639175415039,-0.04145617038011551
1768578443924552200,9.65155224609375,0.02376876398921013,0.249319925904274,-0.056503426283597946
1768578443934525200,9.661525146484376,0.0034978461917489767,0.22104327380657196,-0.058843012899160385
1768578443944499200,9.671499267578126,-0.0007705721072852612,0.21053096652030945,-0.023211374878883362
1768578443954472200,9.68147216796875,-0.0020741894841194153,0.19013088941574097,0.016253210604190826
1768578443964446200,9.6914462890625,-0.000024617183953523636,0.14565694332122803,0.027726614847779274
1768578443974419500,9.70141943359375,-0.004443067591637373,0.11475121974945068,0.017030559480190277
1768578443984392200,9.71139208984375,-0.0012869760394096375,0.12607347965240479,0.00011211726814508438
1768578443994366200,9.7213662109375,0.0028830019291490316,0.1543341428041458,-0.018198445439338684
1768578444004339200,9.731339111328126,-0.0059736063703894615,0.17644530534744263,-0.019120167940855026
1768578444014312200,9.741312255859375,-0.026487138122320175,0.18020008504390717,0.006632334552705288
1768578444024286200,9.7512861328125,-0.04617862403392792,0.1614902764558792,0.04968368634581566
1768578444034259200,9.76125927734375,-0.063414067029953,0.13205328583717346,0.072957843542099
1768578444044233200,9.771233154296874,-0.07028063386678696,0.08701708167791367,0.09517235308885574
1768578444054206500,9.78120654296875,-0.06521663069725037,0.042724452912807465,0.1154232993721962
1768578444064179200,9.79117919921875,-0.05181225761771202,0.02410750836133957,0.16182614862918854
1768578444074153200,9.8011533203125,-0.02099975198507309,0.03180564194917679,0.23695285618305206
1768578444084126200,9.811126220703125,0.01476343721151352,0.045576561242341995,0.3029276132583618
1768578444094100200,9.821100341796875,0.06168114393949509,0.10024140775203705,0.3076954782009125
1768578444104073200,9.8310732421875,0.1200871467590332,0.15017582476139069,0.2577776312828064
1768578444114046200,9.841046142578126,0.16832445561885834,0.15526460111141205,0.17236632108688354
1768578444124020200,9.851020263671876,0.19941489398479462,0.15041415393352509,0.08932886272668839
1768578444133993500,9.860993408203125,0.20933011174201965,0.10984514653682709,0.022419337183237076
1768578444143966200,9.87096630859375,0.18502143025398254,0.026742126792669296,-0.010734816081821918
1768578444153940200,9.880940185546875,0.1500365436077118,-0.07436931133270264,-0.002768235746771097
1768578444163913200,9.890913330078124,0.11657249182462692,-0.18044216930866241,0.045794349163770676
1768578444173886200,9.90088623046875,0.07414620369672775,-0.3043055236339569,0.11635826528072357
1768578444183860200,9.910860107421875,0.03758661821484566,-0.4147205650806427,0.21338486671447754
1768578444193833500,9.92083349609375,0.017333010211586952,-0.5122348666191101,0.3068958818912506
1768578444203807200,9.93080712890625,0.017885100096464157,-0.5989840030670166,0.37488260865211487
1768578444213780200,9.9407802734375,0.03409682586789131,-0.6546762585639954,0.41355597972869873
1768578444223753200,9.950753173828126,0.04964371770620346,-0.6500917673110962,0.4243565797805786
1768578444233727200,9.960727294921876,0.07455785572528839,-0.6408585906028748,0.4027482271194458
1768578444243700200,9.9707001953125,0.11547622829675674,-0.6239888072013855,0.3864136040210724
1768578444253674200,9.98067431640625,0.17961765825748444,-0.5831761360168457,0.39267975091934204
1768578444263647200,9.990647216796875,0.21398021280765533,-0.5773376822471619,0.39607957005500793
1768578444273620500,10.000620361328124,0.22467388212680817,-0.6063517332077026,0.3971533477306366
1768578444283594500,10.010594482421874,0.22456930577754974,-0.6330603957176208,0.4067142903804779
1768578444293567200,10.020567138671876,0.23399370908737183,-0.6464542746543884,0.42241284251213074
1768578444303540200,10.030540283203125,0.2517014741897583,-0.625762939453125,0.4192936420440674
1768578444313514200,10.04051416015625,0.26969191431999207,-0.5766377449035645,0.4265108108520508
1768578444323487200,10.0504873046875,0.2961331009864807,-0.5127996802330017,0.4630187749862671
1768578444333460200,10.060460205078124,0.34602823853492737,-0.4198489487171173,0.5204407572746277
1768578444343434200,10.070434326171876,0.4208066761493683,-0.3083297908306122,0.578622043132782
1768578444353407500,10.080407470703125,0.5205937623977661,-0.15398335456848145,0.6501350998878479
1768578444363381500,10.090381591796875,0.6164901256561279,-0.04860939085483551,0.7370902895927429
1768578444373354200,10.100354248046875,0.603255569934845,-0.07397999614477158,0.796938955783844
1768578444383327200,10.1103271484375,0.5125753283500671,-0.20202715694904327,0.7898956537246704
1768578444393301200,10.12030126953125,0.44173312187194824,-0.3001936674118042,0.6947936415672302
1768578444403274200,10.130274169921876,0.437853068113327,-0.35452842712402344,0.5320018529891968
1768578444413247200,10.140247314453125,0.4802570044994354,-0.27616438269615173,0.38288459181785583
1768578444423221200,10.15022119140625,0.546990692615509,-0.13290046155452728,0.29242590069770813
1768578444433194200,10.1601943359375,0.6006035804748535,-0.04389788210391998,0.27236005663871765
1768578444443168300,10.170168212890625,0.6226289868354797,0.008250627666711807,0.3072013854980469
1768578444453141200,10.180141357421874,0.6230061054229736,0.0336044542491436,0.39778825640678406
1768578444463114200,10.1901142578125,0.5939313769340515,-0.009461058303713799,0.5253627300262451
1768578444473088300,10.200088134765625,0.5399160981178284,-0.08211661875247955,0.6425082683563232
1768578444483061200,10.210061279296875,0.4905051290988922,-0.1281009316444397,0.7017993330955505
1768578444493034200,10.2200341796875,0.4340392053127289,-0.20807884633541107,0.704675555229187
1768578444503008300,10.23000830078125,0.3874104619026184,-0.26276955008506775,0.6506533622741699
1768578444512981200,10.239981201171876,0.3776417076587677,-0.2748669385910034,0.5549864768981934
1768578444522955300,10.249955322265626,0.3817344903945923,-0.27339300513267517,0.43974050879478455
1768578444532928300,10.25992822265625,0.3940207064151764,-0.25519615411758423,0.34227731823921204
1768578444542901200,10.2699013671875,0.4148753583431244,-0.21069274842739105,0.3058146834373474
1768578444552875300,10.279875244140625,0.4434790313243866,-0.16547119617462158,0.32564646005630493
1768578444562848300,10.28984814453125,0.49001505970954895,-0.09967271983623505,0.40475407242774963
1768578444572821500,10.299821533203126,0.5391421318054199,-0.013252340257167816,0.5163796544075012
1768578444582795300,10.309795166015626,0.5390305519104004,-0.007389058358967304,0.6160210967063904
1768578444592768300,10.319768310546875,0.49111178517341614,-0.049727991223335266,0.6835269331932068
1768578444602741200,10.3297412109375,0.4485992193222046,-0.09550076723098755,0.715071439743042
1768578444612715300,10.33971533203125,0.4221700131893158,-0.10976412892341614,0.7177197337150574
1768578444622688300,10.349688232421874,0.40998709201812744,-0.09732107818126678,0.6993900537490845
1768578444632662300,10.359662353515626,0.4191869795322418,-0.057486046105623245,0.653998613357544
1768578444642635300,10.36963525390625,0.44058331847190857,-0.05067823454737663,0.6022753119468689
1768578444652608300,10.379608154296875,0.45796364545822144,-0.021198375150561333,0.5793668031692505
1768578444662582300,10.389582275390625,0.46457403898239136,0.03431706503033638,0.5838838815689087
1768578444672555300,10.39955517578125,0.4606282711029053,0.046432580798864365,0.6044591665267944
1768578444682528300,10.4095283203125,0.4460754692554474,0.04078035429120064,0.6291598081588745
1768578444692502300,10.419502197265626,0.435565322637558,0.04998503625392914,0.6554124355316162
1768578444702475300,10.429475341796875,0.4393627941608429,0.08147842437028885,0.6792386174201965
1768578444712449300,10.43944921875,0.4192820191383362,0.06946250796318054,0.6702020168304443
1768578444722422300,10.44942236328125,0.3917359411716461,0.04628045856952667,0.6234092116355896
1768578444732395300,10.459395263671874,0.3768733739852905,0.018209146335721016,0.5350971817970276
1768578444742369300,10.469369384765624,0.3685804009437561,-0.022128963842988014,0.45185908675193787
1768578444752342300,10.47934228515625,0.353458434343338,-0.05521447956562042,0.3841697871685028
1768578444762315300,10.489315185546875,0.32337430119514465,-0.07753682136535645,0.3301049470901489
1768578444772289300,10.499289306640625,0.310051828622818,-0.06434193253517151,0.2980753779411316
1768578444782262300,10.50926220703125,0.32803288102149963,-0.03260636329650879,0.2850196659564972
1768578444792235300,10.5192353515625,0.368360310792923,0.0068909777328372,0.31924742460250854
1768578444802209300,10.529209228515626,0.3887426555156708,0.047515854239463806,0.4106760323047638
1768578444812182300,10.539182373046875,0.3618580400943756,0.028786377981305122,0.5025705099105835
1768578444822156300,10.54915625,0.3077664375305176,-0.02648128755390644,0.5511775016784668
1768578444832129300,10.55912939453125,0.25797995924949646,-0.06523320823907852,0.5316197872161865
1768578444842102300,10.569102294921874,0.22661751508712769,-0.08517202734947205,0.444715291261673
1768578444852076300,10.579076171875,0.21803253889083862,-0.08037114888429642,0.3279772400856018
1768578444862049300,10.58904931640625,0.22259412705898285,-0.03875594213604927,0.23286676406860352
1768578444872022300,10.599022216796875,0.22899556159973145,0.010869666934013367,0.18684254586696625
1768578444881996300,10.608996337890625,0.2407822161912918,0.04533742740750313,0.20205911993980408
1768578444891969300,10.61896923828125,0.27032893896102905,0.10748468339443207,0.2568555176258087
1768578444901943300,10.628943359375,0.3022187650203705,0.17409732937812805,0.33200353384017944
1768578444911917000,10.6389169921875,0.32529667019844055,0.17409493029117584,0.4265905022621155
1768578444921889800,10.648889892578126,0.33251285552978516,0.16982826590538025,0.5246620178222656
1768578444931863800,10.65886376953125,0.3287050724029541,0.16705459356307983,0.5915422439575195
1768578444941836800,10.6688369140625,0.3084447681903839,0.09557997435331345,0.6104438304901123
1768578444951809800,10.678809814453125,0.26943451166152954,0.024790223687887192,0.5756629705429077
1768578444961783800,10.68878369140625,0.23688137531280518,-0.010743841528892517,0.501354992389679
1768578444971757000,10.698757080078124,0.228748619556427,-0.04585256054997444,0.40165477991104126
1768578444981730000,10.70872998046875,0.2413960099220276,-0.044444888830184937,0.29696089029312134
1768578444991704000,10.7187041015625,0.26138836145401,-0.010321271605789661,0.2269010990858078
1768578445001676800,10.7286767578125,0.2772141993045807,0.05091049522161484,0.2205362468957901
1768578445011649800,10.73864990234375,0.2726018726825714,0.07492049038410187,0.25080519914627075
1768578445021623800,10.748623779296874,0.2598174512386322,0.04233717545866966,0.3005921542644501
1768578445031596800,10.7585966796875,0.24840129911899567,0.03391945734620094,0.3474438190460205
1768578445041570800,10.76857080078125,0.248693585395813,0.05585562810301781,0.3872394561767578
1768578445051544000,10.7785439453125,0.2526283860206604,0.06302539259195328,0.42470961809158325
1768578445061517000,10.78851708984375,0.2622202932834625,0.044948890805244446,0.470085471868515
1768578445071491000,10.798490966796875,0.27164706587791443,0.017638441175222397,0.508688747882843
1768578445081463800,10.8084638671875,0.28469446301460266,-0.006655723787844181,0.5248775482177734
1768578445091436800,10.818436767578126,0.3012678325176239,-0.04032819718122482,0.5049464702606201
1768578445101410800,10.828410888671876,0.3168066442012787,-0.05506749823689461,0.46734818816185
1768578445111383800,10.8383837890625,0.3310694694519043,-0.050974488258361816,0.4209441840648651
1768578445121357000,10.848357177734375,0.33272984623908997,-0.05103372782468796,0.36197349429130554
1768578445131331000,10.8583310546875,0.33712512254714966,-0.07168255001306534,0.31684595346450806
1768578445141304000,10.868303955078124,0.32403790950775146,-0.09029924124479294,0.28715476393699646
1768578445151278000,10.878278076171876,0.3025800287723541,-0.08686988800764084,0.2879622280597687
1768578445161250800,10.888250732421875,0.2790006101131439,-0.09380578994750977,0.2965070307254791
1768578445171223800,10.898223876953125,0.2655468285083771,-0.1471521109342575,0.2998482286930084
1768578445181197800,10.90819775390625,0.25244882702827454,-0.18412470817565918,0.30507776141166687
1768578445191170800,10.9181708984375,0.23863422870635986,-0.18669305741786957,0.3141133487224579
1768578445201144000,10.92814404296875,0.20838028192520142,-0.20449362695217133,0.2981736361980438
1768578445211118000,10.9381181640625,0.16997696459293365,-0.25995874404907227,0.26428890228271484
1768578445221090800,10.9480908203125,0.14710938930511475,-0.3006817400455475,0.1989692747592926
1768578445231063800,10.958063720703125,0.1477096676826477,-0.2938515245914459,0.12048593163490295
1768578445241037800,10.968037841796875,0.14943312108516693,-0.2817705273628235,0.04613399878144264
1768578445251010800,10.9780107421875,0.15118654072284698,-0.26886191964149475,0.01831621676683426
1768578445260984800,10.98798486328125,0.15140461921691895,-0.2435011863708496,0.039924975484609604
1768578445270957800,10.997957763671875,0.1572214961051941,-0.24162845313549042,0.0859537199139595
1768578445280931000,11.00793115234375,0.16772764921188354,-0.24582280218601227,0.15382839739322662
1768578445290905000,11.017905029296875,0.18651385605335236,-0.25084125995635986,0.21358919143676758
1768578445300877800,11.0278779296875,0.20942947268486023,-0.28221395611763,0.2602125108242035
1768578445310850800,11.037850830078124,0.22985778748989105,-0.3234386444091797,0.2826988995075226
1768578445320824800,11.047824951171876,0.24313899874687195,-0.3289100229740143,0.2709845304489136
1768578445330797800,11.0577978515625,0.2501194179058075,-0.3508949279785156,0.24980412423610687
1768578445340771000,11.06777099609375,0.24810197949409485,-0.4071595370769501,0.23415210843086243
1768578445350745000,11.0777451171875,0.2327997237443924,-0.4939783215522766,0.218062624335289
1768578445360718000,11.087718017578124,0.20761089026927948,-0.5719881057739258,0.21727260947227478
1768578445370690800,11.09769091796875,0.196048766374588,-0.5995981693267822,0.22289800643920898
1768578445380664800,11.107664794921876,0.19269788265228271,-0.5727583169937134,0.22461272776126862
1768578445390637800,11.117637939453125,0.19577543437480927,-0.5754651427268982,0.1965683102607727
1768578445400611800,11.12761181640625,0.20852912962436676,-0.5993946194648743,0.16735337674617767
1768578445410584800,11.137584716796875,0.23206481337547302,-0.6201342344284058,0.15037491917610168
1768578445420558000,11.14755810546875,0.2542928159236908,-0.6270851492881775,0.15981420874595642
1768578445430532000,11.157531982421874,0.2663814127445221,-0.6077790856361389,0.18687912821769714
1768578445440504800,11.1675048828125,0.26866015791893005,-0.578777015209198,0.20511329174041748
1768578445450477800,11.177477783203125,0.26114633679389954,-0.5807152390480042,0.210377037525177
1768578445460451800,11.187451904296875,0.25945359468460083,-0.5920833945274353,0.20725244283676147
1768578445470424800,11.1974248046875,0.2566210627555847,-0.6013144254684448,0.17428196966648102
1768578445480397800,11.207397705078124,0.2595433294773102,-0.5978685617446899,0.13957326114177704
1768578445490371800,11.217371826171876,0.26473677158355713,-0.5896263718605042,0.11664824932813644
1768578445500345000,11.227344970703125,0.27850791811943054,-0.5662466883659363,0.1000916063785553
1768578445510319000,11.237319091796875,0.3015567660331726,-0.552161455154419,0.08828208595514297
1768578445520291800,11.247291748046875,0.3187035918235779,-0.5444822311401367,0.08077529817819595
1768578445530264800,11.257264892578124,0.34139159321784973,-0.5105021595954895,0.08813627809286118
1768578445540238800,11.26723876953125,0.3560248613357544,-0.466776043176651,0.11231707036495209
1768578445550211800,11.2772119140625,0.3530690371990204,-0.45447278022766113,0.12254200875759125
1768578445560184800,11.287184814453125,0.34882575273513794,-0.4693777561187744,0.08757904171943665
1768578445570158800,11.297158935546875,0.34169912338256836,-0.4624657928943634,0.024887163192033768
1768578445580132000,11.307132080078125,0.3460261821746826,-0.4208940267562866,-0.027843540534377098
1768578445590104800,11.317104736328124,0.35624685883522034,-0.3848918080329895,-0.0627991259098053
1768578445600078800,11.327078857421874,0.3659980595111847,-0.34127160906791687,-0.07475365698337555
1768578445610051800,11.3370517578125,0.3628336787223816,-0.3232499957084656,-0.07137250900268555
1768578445620024800,11.34702490234375,0.33882224559783936,-0.3649879992008209,-0.07100150734186172
1768578445629998800,11.356998779296875,0.2939434349536896,-0.4315933883190155,-0.07822666317224503
1768578445639972000,11.36697216796875,0.23915338516235352,-0.44916829466819763,-0.0770115777850151
1768578445649944800,11.37694482421875,0.200302392244339,-0.4781070053577423,-0.07093530893325806
1768578445659918800,11.3869189453125,0.18365946412086487,-0.5035801529884338,-0.07044143229722977
1768578445669891800,11.396891845703125,0.1909908801317215,-0.5234223008155823,-0.07006911933422089
1768578445679865900,11.406865966796875,0.2143106907606125,-0.5305320620536804,-0.060788389295339584
1768578445689838800,11.4168388671875,0.24054042994976044,-0.5351383090019226,-0.04497746750712395
1768578445699811800,11.426811767578124,0.25867536664009094,-0.5524270534515381,-0.035023126751184464
1768578445709785900,11.436785888671874,0.2563032805919647,-0.607043981552124,-0.03959124535322189
1768578445719759000,11.446759033203126,0.25055673718452454,-0.6678751111030579,-0.05279391258955002
1768578445729731800,11.45673193359375,0.23869740962982178,-0.717919647693634,-0.05666135624051094
1768578445739705900,11.466705810546875,0.2331082969903946,-0.7458429336547852,-0.07699163258075714
1768578445749678800,11.476678955078125,0.23223984241485596,-0.7771569490432739,-0.11654569953680038
1768578445759651800,11.48665185546875,0.25210681557655334,-0.8308918476104736,-0.15735416114330292
1768578445769625900,11.4966259765625,0.2902001440525055,-0.8675031065940857,-0.1779571771621704
1768578445779598800,11.506598876953126,0.334984689950943,-0.8884648084640503,-0.17058522999286652
1768578445789572000,11.516572021484375,0.3629430830478668,-0.9261429309844971,-0.15128956735134125
1768578445799546000,11.526546142578125,0.37393465638160706,-0.9823873043060303,-0.1078987643122673
1768578445809518800,11.536518798828125,0.3760659992694855,-1.0126231908798218,-0.05804811045527458
1768578445819491800,11.546491943359374,0.3828217387199402,-1.043482780456543,-0.025888780131936073
1768578445829465900,11.5564658203125,0.3880934715270996,-1.077852725982666,-0.006512952037155628
1768578445839438800,11.56643896484375,0.38461264967918396,-1.1104108095169067,-0.0007031913846731186
1768578445849412900,11.576412841796875,0.3765033185482025,-1.117432951927185,0.005058291368186474
1768578445859385900,11.5863857421875,0.3631264567375183,-1.1322075128555298,-0.001318042748607695
1768578445869359000,11.596359130859375,0.36311420798301697,-1.159644365310669,-0.008097917772829533
1768578445879333000,11.6063330078125,0.38894668221473694,-1.1451702117919922,-0.012788907624781132
1768578445889305900,11.616305908203126,0.4272424280643463,-1.0871433019638062,-0.0009785874281078577
1768578445899278800,11.62627880859375,0.4643913805484772,-0.9952427744865417,0.058305755257606506
1768578445909253400,11.63625341796875,0.48121219873428345,-0.8960698246955872,0.114876888692379
1768578445919226000,11.64622607421875,0.48128268122673035,-0.8329464197158813,0.1354212909936905
1768578445929199000,11.65619921875,0.47491374611854553,-0.8237950205802917,0.13086383044719696
1768578445939173000,11.666173095703124,0.4573252201080322,-0.9007406830787659,0.08513455092906952
1768578445949146400,11.676146484375,0.43087124824523926,-1.027506709098816,0.0016849320381879807
1768578445959119400,11.686119384765625,0.3949391543865204,-1.1115778684616089,-0.07266972959041595
1768578445969093400,11.69609326171875,0.3632299602031708,-1.163630723953247,-0.12414197623729706
1768578445979066400,11.70606640625,0.3384416401386261,-1.2224739789962769,-0.14662973582744598
1768578445989039000,11.7160390625,0.325449675321579,-1.2624636888504028,-0.1517387479543686
1768578445999013000,11.72601318359375,0.32948604226112366,-1.259777307510376,-0.1434125304222107
1768578446008986000,11.735986083984375,0.36134329438209534,-1.1880970001220703,-0.13465818762779236
1768578446018959400,11.74595947265625,0.4095495045185089,-1.1050753593444824,-0.1243991106748581
1768578446028933400,11.755933349609375,0.44340839982032776,-1.055781602859497,-0.14662052690982819
1768578446038906400,11.76590625,0.4607151746749878,-0.9577392339706421,-0.1598968207836151
1768578446048879400,11.77587939453125,0.4746943712234497,-0.8855516314506531,-0.16618692874908447
1768578446058853400,11.785853271484376,0.4641450047492981,-0.8682354688644409,-0.175275981426239
1768578446068826000,11.795826171875,0.433403342962265,-0.8863041996955872,-0.17037257552146912
1768578446078800100,11.805800048828125,0.39077645540237427,-0.8944224119186401,-0.1419888138771057
1768578446088773400,11.8157734375,0.35194358229637146,-0.8767041563987732,-0.10299372673034668
1768578446098746400,11.825746337890624,0.33731895685195923,-0.7776519656181335,-0.042513277381658554
1768578446108720400,11.835720458984374,0.3334975838661194,-0.7102271318435669,-0.007431991398334503
1768578446118693400,11.845693359375,0.32644128799438477,-0.7191489934921265,-0.022869005799293518
1768578446128666000,11.855666015625,0.31505706906318665,-0.731208324432373,-0.05900037661194801
1768578446138640100,11.86564013671875,0.31233641505241394,-0.7493245601654053,-0.09067649394273758
1768578446148613000,11.875613037109375,0.3158129155635834,-0.7596927881240845,-0.1130068376660347
1768578446158586400,11.88558642578125,0.3187829852104187,-0.7592900395393372,-0.1216190978884697
1768578446168560400,11.895560302734374,0.3072115480899811,-0.78245609998703,-0.1386745125055313
1768578446178533400,11.905533447265626,0.29936426877975464,-0.7967320680618286,-0.16859778761863708
1768578446188506400,11.91550634765625,0.31013223528862,-0.7873673439025879,-0.15993905067443848
1768578446198480400,11.92548046875,0.3436692953109741,-0.7622883319854736,-0.09915190190076828
1768578446208453000,11.935453125,0.36797890067100525,-0.7388882040977478,-0.04963122308254242
1768578446218426000,11.945426025390624,0.36857640743255615,-0.7627348899841309,-0.04286323860287666
1768578446228400000,11.955400146484376,0.3521806597709656,-0.7701669931411743,-0.06962454319000244
1768578446238373400,11.965373291015625,0.3456151485443115,-0.7602327466011047,-0.09849363565444946
1768578446248346400,11.975346435546875,0.3613320589065552,-0.7685120105743408,-0.129988431930542
1768578446258320400,11.9853203125,0.3861601948738098,-0.7588265538215637,-0.16806936264038086
1768578446268293400,11.99529345703125,0.40173062682151794,-0.7488397359848022,-0.18979090452194214
1768578446278266000,12.00526611328125,0.41082414984703064,-0.7160010933876038,-0.18969285488128662
1768578446288240000,12.015240234375,0.4118705093860626,-0.6876967549324036,-0.15170153975486755
1768578446298213000,12.025213134765625,0.4124530553817749,-0.6596335172653198,-0.11942805349826813
1768578446308186400,12.035186279296875,0.43233782052993774,-0.6072726249694824,-0.06964612007141113
1768578446318160400,12.045160400390625,0.44606342911720276,-0.6067068576812744,-0.017160940915346146
1768578446328133400,12.05513330078125,0.42050987482070923,-0.6443849802017212,0.023581961169838905
1768578446338106400,12.0651064453125,0.37829819321632385,-0.6784701943397522,0.04035050421953201
1768578446348080000,12.075080078125,0.3508191704750061,-0.7236618995666504,0.03148484230041504
1768578446358053000,12.08505322265625,0.34191665053367615,-0.7456032037734985,-0.000936933676712215
1768578446368026400,12.0950263671875,0.342891126871109,-0.7104649543762207,-0.021836357191205025
1768578446378000400,12.10500048828125,0.37032803893089294,-0.6610721349716187,-0.03454536572098732
1768578446387973400,12.114973388671874,0.3851650357246399,-0.6407876014709473,-0.06888043880462646
1768578446397946400,12.1249462890625,0.3858502507209778,-0.6362752914428711,-0.12571388483047485
1768578446407920400,12.13492041015625,0.3880915641784668,-0.6353021860122681,-0.1709255576133728
1768578446417893000,12.14489306640625,0.388139933347702,-0.6089861392974854,-0.18780183792114258
1768578446427867100,12.1548671875,0.37806519865989685,-0.5830698609352112,-0.17713160812854767
1768578446437840100,12.164840087890624,0.3681679666042328,-0.5405725836753845,-0.16063658893108368
1768578446447813400,12.1748134765625,0.3668696880340576,-0.5044992566108704,-0.16234846413135529
1768578446457787400,12.184787353515626,0.3814304769039154,-0.4833436608314514,-0.1899631768465042
1768578446467760400,12.194760498046875,0.40468332171440125,-0.4775553047657013,-0.24517369270324707
1768578446477733400,12.2047333984375,0.4199383556842804,-0.47298479080200195,-0.3387065529823303
1768578446487707400,12.214707275390625,0.4173066020011902,-0.5324116349220276,-0.48993149399757385
1768578446497680100,12.22468017578125,0.4126944839954376,-0.5387782454490662,-0.6853237748146057
1768578446507653000,12.234653076171876,0.4125155210494995,-0.5167080760002136,-0.8774271607398987
1768578446517627100,12.244627197265626,0.4123540222644806,-0.49819082021713257,-1.0277613401412964
1768578446527600400,12.254600341796875,0.38667234778404236,-0.4834930896759033,-1.0945731401443481
1768578446537573400,12.264573486328125,0.35912376642227173,-0.4665958285331726,-1.0689088106155396
1768578446547547400,12.27454736328125,0.33317792415618896,-0.4183894097805023,-0.9994072318077087
1768578446557520400,12.284520263671874,0.3438511788845062,-0.42542311549186707,-0.8854427337646484
1768578446567493000,12.2944931640625,0.3412732481956482,-0.38732871413230896,-0.7551379799842834
1768578446577467100,12.304467041015625,0.34442222118377686,-0.333025187253952,-0.6425850987434387
1768578446587440000,12.314440185546875,0.36551979184150696,-0.3354007303714752,-0.5779759883880615
1768578446597413400,12.324413330078125,0.37173160910606384,-0.34319040179252625,-0.5568471550941467
1768578446607387400,12.334387451171875,0.37378808856010437,-0.394727885723114,-0.5597543120384216
1768578446617360400,12.3443603515625,0.3582315146923065,-0.44770410656929016,-0.5967816710472107
1768578446627333000,12.3543330078125,0.3171061873435974,-0.4902869760990143,-0.6196715235710144
1768578446637307100,12.36430712890625,0.2823813855648041,-0.5135644674301147,-0.624020516872406
